t,x,y,z,vx,vy,vz,ax,ay,az,yaw,yaw_rate,qw,qx,qy,qz,thrust_N,roll,pitch
0.0,1.5,0.0,1.0,-0.0,2.0,0.0,-2.6666666666666665,-0.0,0.0,0.0,0.0,0.9912070723137711,0.0,-0.1323198390082245,0.0,2.378840030687226,0.0,-0.26541806895719433
0.02,1.4994666982708558,0.03999525942781607,1.0,-0.05332701257042143,1.9992889310278077,0.0,-2.6657185747037433,-0.07110268342722857,0.0,0.0,0.0,0.9912069564098948,0.003592076903911201,-0.1322710730986894,-0.00047934274841476425,2.378840030687226,0.007510654492864888,-0.2653142876904331
0.04,1.4978671722977355,0.07996207946761824,1.0,-0.10661610595682433,1.997156229730314,0.0,-2.6628749729737518,-0.14215480794243243,0.0,0.0,0.0,0.9912066100881144,0.007181314431509255,-0.13212482173383713,-0.0009572473381643863,2.378840030687226,0.015013940552832918,-0.26500308424535124
0.06,1.495202559453929,0.11987204095375903,1.0,-0.15982938793834536,1.9936034126052389,0.0,-2.6581378834736515,-0.21310585058446047,0.0,0.0,0.0,0.9912060375003275,0.010764877236182278,-0.13188122388441947,-0.0014322806068186166,2.378840030687226,0.02250251077986909,-0.2644848790372334
0.08,1.4914747544629523,0.15969676515094422,1.0,-0.21292902020125895,1.9886330059506032,0.0,-2.651510674600804,-0.28390536026834523,0.0,0.0,0.0,0.9912052455077904,0.014339938011374832,-0.13154051076756687,-0.0019030193584429205,2.378840030687226,0.029969059664224258,-0.2637603705971687
0.1,1.4866864080512692,0.19940793393347112,1.0,-0.26587724524462814,1.9822485440683588,0.0,-2.6429980587578115,-0.35450299365950416,0.0,0.0,0.0,0.9912042435941334,0.01790368146244586,-0.13110300524874982,-0.0023680552821604937,2.378840030687226,0.03740634409557206,-0.2628305323537399
0.12,1.4808409250634404,0.23897730992136892,1.0,-0.3186364132284919,1.9744545667512539,0.0,-2.632606089001672,-0.4248485509713225,0.0,0.0,0.0,0.9912030437453282,0.021453308221265115,-0.13056912101077284,-0.002825999793785415,2.378840030687226,0.04480720335612646,-0.2616966081735146
0.14,1.4739424620410466,0.27837675655912375,1.0,-0.3711690087454983,1.965256616054729,0.0,-2.6203421547396384,-0.4948920116606644,0.0,0.0,0.0,0.9912016602983046,0.024986038685356295,-0.12993936149595442,-0.003275488776029007,2.378840030687226,0.05216457843753518,-0.26036010670555076
0.16,1.4659959242670988,0.31757825812270973,1.0,-0.42343767749694633,1.9546612323561319,0.0,-2.6062149764748423,-0.5645835699959284,0.0,0.0,0.0,0.9912001097603617,0.028499116764144506,-0.1292143186292684,-0.003715187193739512,2.378840030687226,0.05947153053110859,-0.2588227945867292
0.18,1.4570069622780446,0.35655393964070187,1.0,-0.47540525285426916,1.9426759497040593,0.0,-2.590234599605412,-0.6338736704723589,0.0,0.0,0.0,0.991198410601911,0.03198981351577992,-0.12839467133174984,-0.004143793561803975,2.378840030687226,0.06672125855272601,-0.25708668857544037
0.2,1.4469819678458458,0.39527608671530257,1.0,-0.5270347822870701,1.9293092904611278,0.0,-2.5724123872815037,-0.7027130430494268,0.0,0.0,0.0,0.991196583025448,0.035455430659074576,-0.12748118383487816,-0.004560044244702786,2.378840030687226,0.07390711557729662,-0.25515404669074004
0.22,1.4359280694329906,0.43371716522919046,1.0,-0.5782895536389207,1.9145707592439873,0.0,-2.552761012325316,-0.7710527381852275,0.0,0.0,0.0,0.9911946487139524,0.03889330394628961,-0.1264747038079314,-0.0049627175682406275,2.378840030687226,0.0810226240726501,-0.25302735844249447
0.24,1.4238531271236612,0.4718498409241766,1.0,-0.6291331212322354,1.8984708361648817,0.0,-2.531294448219842,-0.8388441616429805,0.0,0.0,0.0,0.9911926305621761,0.042300806383826724,-0.1253761603114422,-0.005350637725659781,2.378840030687226,0.08806148983886766,-0.25070933424510655
0.26,1.4107657270346756,0.5096469988377479,1.0,-0.6795293317836638,1.8810209693795674,0.0,-2.5080279591727566,-0.906039109044885,0.0,0.0,0.0,0.991190552394471,0.04567535128929191,-0.1241865615908671,-0.005722678462147722,2.378840030687226,0.09501761457601252,-0.24820289411308627
0.28,1.3966751752101632,0.5470817625836746,1.0,-0.7294423501115661,1.8622335669468841,0.0,-2.482978089262512,-0.9725898001487547,0.0,0.0,0.0,0.9911884386729506,0.04901439517489154,-0.12290699272540198,-0.0060777665236550465,2.378840030687226,0.10188510702063633,-0.24551115574100058
0.3,1.3815914910043277,0.5841275134629758,1.0,-0.7788366846173009,1.8421219880057702,0.0,-2.45616265067436,-1.0384489128230678,0.0,0.0,0.0,0.9911863141998568,0.05231544044866913,-0.1215386131475269,-0.006414884857915038,2.378840030687226,0.1086582926090007,-0.2426374220731251
0.32,1.365525399956994,0.6207579093916495,1.0,-0.8276772125221994,1.820700533275992,0.0,-2.427600711034656,-1.1035696166962659,0.0,0.0,0.0,0.9911842038180257,0.05557603792667517,-0.12008265404934725,-0.006733075557575757,2.378840030687226,0.11533172164233291,-0.2395851684695145
0.34,1.3484883261670106,0.6569469036317122,1.0,-0.8759292048422829,1.7979844348893474,0.0,-2.3973125798524633,-1.167905606456377,0.0,0.0,0.0,0.991182132113307,0.05879378915076197,-0.11854041569210982,-0.007031442537393188,2.378840030687226,0.12190017594634772,-0.2363580295752099
0.36,1.3304923841689262,0.6926687633122244,1.0,-0.9235583510829658,1.7739898455585683,0.0,-2.365319794078091,-1.2314111347772876,0.0,0.0,0.0,0.991180123122698,0.061966348508291,-0.11691326463541879,-0.007309153939463731,2.378840030687226,0.1283586740334364,-0.2329597859979966
0.38,1.3115503703187215,0.7278980877271384,1.0,-0.9705307836361845,1.7487338270916286,0.0,-2.331645102788838,-1.294041044848246,0.0,0.0,0.0,0.9911782000518116,0.06509142515161091,-0.11520263090266074,-0.007565444262471896,2.378840030687226,0.13470247479111414,-0.22939435089761018
0.4,1.2916757536947154,0.7626098263969517,1.0,-1.0168131018626023,1.7222343382596206,0.0,-2.2963124510128274,-1.3557508024834697,0.0,0.0,0.0,0.9911763850050956,0.0681667847166959,-0.11341000509897743,-0.0077996162128717746,2.378840030687226,0.14092707973433866,-0.22566575658564703
0.42,1.2708826665201243,0.7967792968813251,1.0,-1.0623723958417668,1.6945102220268322,0.0,-2.259346962702443,-1.4164965277890222,0.0,0.0,0.0,0.991174698731995,0.07119025084180695,-0.11153693549781189,-0.008011042277787874,2.378840030687226,0.14702823387199454,-0.22177814123084238
0.44,1.2491858941140734,0.830382202330001,1.0,-1.1071762697733347,1.665581192152098,0.0,-2.220774922869464,-1.4762350263644461,0.0,0.0,0.0,0.9911731603919642,0.07415970648844174,-0.10958502511160281,-0.008199166021193718,2.378840030687226,0.1530019252490733,-0.2177357357589036
0.46,1.226600864378218,0.8633946487595394,1.0,-1.1511928650127192,1.6354678191709573,0.0,-2.1806237588946096,-1.5349238200169588,0.0,0.0,0.0,0.9911717873409349,0.0770730950681561,-0.10755592876163272,-0.008363503106588864,2.378840030687226,0.1588443832357773,-0.21354285102991044
0.48,1.203143636826439,0.8957931620435879,1.0,-1.194390882724784,1.6041915157685853,0.0,-2.13892202102478,-1.5925211769663785,0.0,0.0,0.0,0.9911705949415102,0.07992842138006624,-0.10545135016135646,-0.00850364205093392,2.378840030687226,0.1645520756429108,-0.2092038653695707
0.5,1.178830891165422,0.9275547046046055,1.0,-1.236739606139474,1.571774521553896,0.0,-2.095699362071861,-1.6489861415192986,0.0,0.0,0.0,0.9911695963988015,0.08272375236496075,-0.10327303902676195,-0.008619244716006618,2.378840030687226,0.1701217047494697,-0.20472321252342485
0.52,1.1536799154342354,0.9586566917951677,1.0,-1.2782089223935569,1.5382398872456473,0.0,-2.0509865163275296,-1.704278563191409,0.0,0.0,0.0,0.9911688026234624,0.08545721768296657,-0.10102278822646159,-0.008710046544603183,2.378840030687226,0.1755502023333508,-0.2001053700956572
0.54,1.1277085937113425,0.9890770079572097,1.0,-1.3187693439429462,1.50361145828179,0.0,-2.0048152777090533,-1.7583591252572615,0.0,0.0,0.0,0.9911682221230911,0.0881270101226114,-0.09870243098329236,-0.008775856550121247,2.378840030687226,0.18083472379961302,-0.19535484852653462
0.56,1.1009353933977866,1.0187940221477847,1.0,-1.3583920295303795,1.4679138578637154,0.0,-1.9572184771516206,-1.8111893727071726,0.0,0.0,0.0,0.9911678609228037,0.09073138584990983,-0.09631383813823031,-0.008816557069021168,2.378840030687226,0.18597264150282175,-0.1904761806548425
0.58,1.0733793520855974,1.0477866035201553,1.0,-1.3970488046935403,1.4311724694474632,0.0,-1.9082299592632843,-1.862731739591387,0.0,0.0,0.0,0.9911677225154049,0.09326866450676866,-0.0938589154864165,-0.008832103286470449,2.378840030687226,0.19096153736079868,-0.18547391190410023
0.6,1.0450600640207481,1.076034136349284,1.0,-1.4347121817990454,1.393413418694331,0.0,-1.857884558259108,-1.9129495757320605,0.0,0.0,0.0,0.9911678078412155,0.09573722916855944,-0.0913396011940559,-0.00882252254613281,2.378840030687226,0.19579919485669212,-0.18035259112392343
0.62,1.0159976661702965,1.1035165346910352,1.0,-1.471355379588047,1.3546635548937287,0.0,-1.8062180731916382,-1.9618071727840625,0.0,0.0,0.0,0.9911681152972662,0.09813552617114589,-0.08875786330390556,-0.008787913455572635,2.378840030687226,0.20048359052480363,-0.1751167621107339
0.64,0.9862128239036114,1.1302142566646665,1.0,-1.5069523422195552,1.314950431871482,0.0,-1.7532672424953093,-2.0092697896260736,0.0,0.0,0.0,0.9911686407752348,0.10046206481798592,-0.08611569733602141,-0.008728444799111933,2.378840030687226,0.20501288501319603,-0.1697709558251943
0.66,0.9557267162978703,1.156108318348454,1.0,-1.5414777577979386,1.2743022883971604,0.0,-1.6990697178628804,-2.055303677063918,0.0,0.0,0.0,0.9911693777271817,0.10271541697815431,-0.08341512398939618,-0.008644354270207901,2.378840030687226,0.20938541381289194,-0.16431968331730173
0.68,0.9245610210782746,1.1811803072785705,1.0,-1.5749070763714275,1.2327480281043661,0.0,-1.643664037472488,-2.0998761018285697,0.0,0.0,0.0,0.9911703172578586,0.10489421658626208,-0.08065818694910508,-0.008535947035522027,2.378840030687226,0.2135996777395937,-0.15876742936405908
0.7000000000000001,0.8927378992036918,1.2054123955416167,1.0,-1.6072165273888224,1.1903171989382557,0.0,-1.587089598584341,-2.142955369851763,0.0,0.0,0.0,0.991171448242089,0.10699715905528623,-0.07784695080258588,-0.008403594142835829,2.378840030687226,0.2176543332494448,-0.15311864681910903
0.72,0.860279979108685,1.2287873524514974,1.0,-1.6383831366019965,1.1470399721449134,0.0,-1.529386629526551,-2.184510848802662,0.0,0.0,0.0,0.9911727574654875,0.10902300061327713,-0.074983499067727,-0.008247730784843645,2.378840030687226,0.221548182665533,-0.14737775166866118
0.74,0.8272103406131359,1.2512885568016274,1.0,-1.6683847424021698,1.1029471208175146,0.0,-1.4705961610900193,-2.2245129898695595,0.0,0.0,0.0,0.9911742297865773,0.11097055757478891,-0.07206993233452422,-0.008068854430629758,2.378840030687226,0.22528016438673293,-0.14154911878349297
0.76,0.7935524985109002,1.2729000086837565,1.0,-1.697200011578342,1.0580699980145336,0.0,-1.4107599973527114,-2.2629333487711225,0.0,0.0,0.0,0.9911758483181768,0.11283870555768558,-0.06910836652119902,-0.007867522836326142,2.378840030687226,0.2288493431452008,-0.13563707835276073
0.78,0.7593303858491676,1.2936063408650076,1.0,-1.7248084544866769,1.0124405144655568,0.0,-1.3499206859540758,-2.2997446059822355,0.0,0.0,0.0,0.9911775946257877,0.1146263786557242,-0.06610093124485451,-0.007644351946059974,2.378840030687226,0.23225490037347035,-0.12964591298178996
0.8,0.724568336910415,1.3133928297150383,1.0,-1.751190439620051,0.9660911158805533,0.0,-1.2881214878407377,-2.334920586160068,0.0,0.0,0.0,0.9911794489405883,0.11633256857701055,-0.06304976830597862,-0.007400013693846805,2.378840030687226,0.23549612473674716,-0.12357985543296501
0.8200000000000001,0.6892910699090524,1.3322454056755586,1.0,-1.7763272075674115,0.9190547598787366,0.0,-1.225406346504982,-2.3684362767565483,0.0,0.0,0.0,0.9911813903845489,0.11795632375807158,-0.059957030285392246,-0.007135233716577733,2.378840030687226,0.23857240288072845,-0.11744308698619887
0.84,0.6535236694150683,1.3501506632647575,1.0,-1.80020088435301,0.8713648925534245,0.0,-1.1618198567378992,-2.400267845804013,0.0,0.0,0.0,0.9911833972051205,0.11949674846289972,-0.056824879251582375,-0.006850788987697048,2.378840030687226,0.24148321044015858,-0.11123973639329976
0.86,0.61729156851717,1.367095870609524,1.0,-1.822794494146032,0.8230554246895601,0.0,-1.0974072329194133,-2.4303926588613756,0.0,0.0,0.0,0.9911854470169186,0.12095300187590322,-0.05365548557575637,-0.0065475053805811,2.378840030687226,0.24422810334841627,-0.10497387939876845
0.88,0.5806205307381029,1.3830689784986878,1.0,-1.8440919713315838,0.7741607076508039,0.0,-1.0322142768677385,-2.458789295108778,0.0,0.0,0.0,0.9911875170478064,0.12232429719725105,-0.05045102685140362,-0.006226255170019393,2.378840030687226,0.24680670948376904,-0.09864953879815608
0.9,0.5435366317150104,1.3980586289508394,1.0,-1.8640781719344526,0.7247155089533472,0.0,-0.9662873452711296,-2.48543756257927,0.0,0.0,0.0,0.9911895843868034,0.1236099007486358,-0.047213686914652706,-0.005887954479574017,2.378840030687226,0.24921872068354767,-0.09227068500403579
0.92,0.5060662406578555,1.4120541632906387,1.0,-1.8827388843875181,0.6747549875438074,0.0,-0.8996733167250764,-2.5103185125166907,0.0,0.0,0.0,0.9911916262312835,0.12480913109699932,-0.04394565496126415,-0.005533560681962514,2.378840030687226,0.25146388515342055,-0.08584123708887792
0.9400000000000001,0.46823600159909445,1.4250456297278669,1.0,-1.9000608396371559,0.6243146687987926,0.0,-0.8324195583983901,-2.533414452849541,0.0,0.0,0.0,0.9911936201309823,0.12592135820327735,-0.04064912475569873,-0.005164069758979731,2.378840030687226,0.25354200029519774,-0.07936506427360879
0.96,0.43007281444793355,1.4370237904338374,1.0,-1.9160317205784498,0.5734304192639114,0.0,-0.7645738923518818,-2.5547089607712663,0.0,0.0,0.0,0.9911955442264161,0.1269460026027277,-0.03732629392734692,-0.004780513626853811,2.378840030687226,0.255452905973179,-0.07284598783034424
0.98,0.3916038158626347,1.4479801281101283,1.0,-1.9306401708135044,0.5221384211501796,0.0,-0.6961845615335728,-2.5741868944180055,0.0,0.0,0.0,0.9911973774794146,0.12788253462291121,-0.033979363348690866,-0.004383957432326526,2.378840030687226,0.2571964782359729,-0.06628778336771068
1.0,0.3528563599544841,1.4579068520449692,1.0,-1.9438758027266254,0.47047514660597883,0.0,-0.6273001954746384,-2.5918344036355005,0.0,0.0,0.0,0.9911990998935777,0.1287304736449024,-0.03061053658989893,-0.003975496824165181,2.378840030687226,0.25877262350796215,-0.05969418346722577
1.02,0.3138579988371292,1.4667969036529742,1.0,-1.9557292048706323,0.41847733178283897,0.0,-0.5579697757104519,-2.6076389398275097,0.0,0.0,0.0,0.9912006927225988,0.12948938741281762,-0.027222019444113125,-0.003556255204257135,2.378840030687226,0.2601812732621547,-0.0530688806394044
1.04,0.27463646303512657,1.4746439614942841,1.0,-1.9661919486590453,0.36618195071350207,0.0,-0.4882426009513361,-2.621589264878727,0.0,0.0,0.0,0.9912021386645392,0.13015889139626655,-0.02381601951748729,-0.0031273809619140717,2.378840030687226,0.26142237918403205,-0.04641553056854186
1.06,0.2352196417656273,1.4814424457695445,1.0,-1.9752565943593927,0.3136261890208364,0.0,-0.41816825202778185,-2.6336754591458567,0.0,0.0,0.0,0.9912034220402888,0.13073864820985429,-0.02039474587785813,-0.0026900446945251674,2.378840030687226,0.2624959088341675,-0.03973775561547899
1.08,0.1956355631072183,1.4871875222875297,1.0,-1.9829166963833729,0.2608474174762911,0.0,-0.34779655663505477,-2.6438889285111635,0.0,0.0,0.0,0.9912045289546118,0.1312283670933963,-0.016960408755783796,-0.002245436417250234,2.378840030687226,0.2634018418158151,-0.03303914854803658
1.1,0.15591237407002612,1.4918751059025845,1.0,-1.9891668078701128,0.2078831654267015,0.0,-0.2771775539022686,-2.6522224104934837,0.0,0.0,0.0,0.9912054474383493,0.13162780345604586,-0.013515219291561797,-0.0017947627640390912,2.378840030687226,0.26414016645234406,-0.026323276469220058
1.12,0.1160783205812522,1.4955018634194461,1.0,-1.9940024845592617,0.15477109410833625,0.0,-0.206361458811115,-2.6586699794123487,0.0,0.0,0.0,0.9912061675705306,0.1319367584870832,-0.010061389321735505,-0.0013392441819041418,2.378840030687226,0.26471087697828605,-0.019593684913688847
1.1400000000000001,0.07616172740036878,1.4980652159633745,1.0,-1.997420287951166,0.10154896986715836,0.0,-0.13539862648954448,-2.6632270506015545,0.0,0.0,0.0,0.9912066815793231,0.13215507883567104,-0.006601131198515825,-0.0008801121200620691,2.378840030687226,0.2651139712468493,-0.012853902083367785
1.16,0.036190977978262706,1.4995633408139106,1.0,-1.9994177877518808,0.04825463730435028,0.0,-0.06433951640580036,-2.6658903836691743,0.0,0.0,0.0,0.9912069839209539,0.13228265636144532,-0.0031366576354798985,-0.00041860621529960916,2.378840030687226,0.26534944895600354,-0.006107443193400286
1.18,-0.0038055057253576596,1.4999951727009573,1.0,-1.9999935636012762,-0.005074007633810213,0.0,0.00676534351174695,-2.6666580848017016,0.0,0.0,0.0,0.9912070713359175,0.13231942795737733,0.00032981842714251115,4.402852529137079e-05,2.378840030687226,0.2654173103946236,0.0006421851000601997
1.2,-0.04379928345193289,1.4993604045622577,1.0,-1.9991472060830104,-0.05839904460257719,0.0,0.07786539280343624,-2.6655296081106803,0.0,0.0,0.0,0.9912069428819914,0.13226537544591982,0.003796083944318932,0.0005065445432209289,2.378840030687226,0.26531755570967175,0.00739148021851177
1.22,-0.0837619168670412,1.4976594877617404,1.0,-1.996879317015654,-0.11168255582272159,0.0,0.14891007443029544,-2.662505756020872,0.0,0.0,0.0,0.9912065999437749,0.1321205255490268,0.007259925881949209,0.0009676945482652358,2.378840030687226,0.26505018469496444,0.014136939154365313
1.24,-0.12366498978201432,1.4948936317685664,1.0,-1.9931915090247552,-0.16488665304268577,0.0,0.219848870723581,-2.6575886786996734,0.0,0.0,0.0,0.9912060462186713,0.13188494993221603,0.01071913133324326,0.001426234338051807,2.378840030687226,0.2646151971016736,0.020875053966876278
1.26,-0.1634801283598067,1.4910648032971139,1.0,-1.988086404396152,-0.21797350447974223,0.0,0.29063133930632296,-2.6507818725282024,0.0,0.0,0.0,0.9912052876794302,0.13155876532242514,0.014171487642499448,0.0018809256167247174,2.378840030687226,0.26401259347033945,0.02760230730882296
1.28,-0.20317902129075233,1.486175724908509,1.0,-1.9815676332113452,-0.2709053617210031,0.0,0.36120714896133743,-2.6420901776151267,0.0,0.0,0.0,0.9912043325135762,0.13114213369899191,0.017614782543028215,0.002330538811789177,2.378840030687226,0.263242376483771,0.034315168012101216
1.3,-0.2427334399238581,1.4802298730746961,1.0,-1.9736398307662615,-0.3236445865651441,0.0,0.43152611542019215,-2.631519774355015,0.0,0.0,0.0,0.9912031910402375,0.1306352625566658,0.021046804315939284,0.00277385588812121,2.378840030687226,0.26230455283976495,0.0410100867605625
1.32,-0.28211525833932016,1.4732314757064278,1.0,-1.964308634275237,-0.3761536777857602,0.0,0.5015382370476802,-2.6190781790336493,0.0,0.0,0.0,0.9912018756050941,0.13003840523913185,0.024465341976473112,0.0032096731579612865,2.378840030687226,0.26119913564204467,0.04768349187865151
1.34,-0.3212964733479951,1.4651855091469275,1.0,-1.95358067886257,-0.4283952977973268,0.0,0.5711937303964357,-2.6047742384834267,0.0,0.0,0.0,0.9912004004543588,0.12935186134109689,0.02786818549450425,0.003636804085491357,2.378840030687226,0.2599261473071867,0.054331785264697396
1.36,-0.36024922440359786,1.456097694633367,1.0,-1.9414635928444894,-0.48033229920479714,0.0,0.6404430656063962,-2.5886181237926524,0.0,0.0,0.0,0.9911987815888855,0.12857597717654837,0.03125312605577496,0.0040540820843238306,2.378840030687226,0.2584856229845185,0.060951338498055785
1.3800000000000001,-0.3989458134134706,1.445974494228672,1.0,-1.9279659923048962,-0.5319277512179608,0.0,0.7092370016239476,-2.570621323073195,0.0,0.0,0.0,0.9911970365996948,0.12771114631035238,0.03461795637033201,0.004460363305910865,2.378840030687226,0.256877614485026,0.06753848914967708
1.4000000000000001,-0.43735872443383894,1.43482310622655,1.0,-1.9130974749687333,-0.5831449659117852,0.0,0.7775266212157136,-2.550796633291644,0.0,0.0,0.0,0.9911951844863764,0.12675781014990267,0.03796047103453382,0.004854529416514183,2.378840030687226,0.25510219471416107,0.07408953732608281
1.42,-0.4754606432355445,1.4226514600330056,1.0,-1.8968686133773407,-0.6339475243140593,0.0,0.845263365752079,-2.5291581511697876,0.0,0.0,0.0,0.9911932454600002,0.12571645859307196,0.04127846695286626,0.005235490359962222,2.378840030687226,0.2531594626020693,0.08060074247713578
1.44,-0.5132244767263473,1.4094682105279874,1.0,-1.8792909473706498,-0.6842993023017964,0.0,0.9123990697357285,-2.5057212631608663,0.0,0.0,0.0,0.9911912407323327,0.12458763072824677,0.044569743825654484,0.005602187102965652,2.378840030687226,0.2510495485231357,0.08706832049836599
1.46,-0.55062337221598,1.3952827319111716,1.0,-1.860376975881562,-0.7341644962879733,0.0,0.978885995050631,-2.480502634508749,0.0,0.0,0.0,0.9911891922932993,0.1233719155817492,0.047832104708576156,0.005953594359267046,2.378840030687226,0.2487726201948569,0.09348844115896782
1.48,-0.5876307365102661,1.380105111036258,1.0,-1.8401401480483441,-0.7835076486803548,0.0,1.0446768649071396,-2.453520197397792,0.0,0.0,0.0,0.9911871226787804,0.1220699529074649,0.051063356649673396,0.00628872328837022,2.378840030687226,0.24632888904385775,0.09985722588684331
1.5,-0.6242202548207136,1.3639461402385225,1.0,-1.8185948536513634,-0.8322936730942848,0.0,1.1097248974590463,-2.4247931382018177,0.0,0.0,0.0,0.9911850547309482,0.12068243401300728,0.05426131140931436,0.0066066241640329645,2.378840030687226,0.24371861702438152,0.10617074594224296
1.52,-0.6603659094761435,1.3468173096607223,1.0,-1.795756412880963,-0.8804878793015246,0.0,1.1739838390686994,-2.394341883841284,0.0,0.0,0.0,0.9911830113534633,0.11921010261625398,0.05742378626827596,0.006906389007119351,2.378840030687226,0.24094212387176367,0.11242502101158802
1.54,-0.6960419984230519,1.3287307990828106,1.0,-1.7716410654437473,-0.9280559978974026,0.0,1.2374079971965366,-2.3621880872583296,0.0,0.0,0.0,0.9911810152639509,0.11765375572559778,0.06054860492879923,0.007187154176799497,2.378840030687226,0.23799979477024946,0.11861601825294676
1.56,-0.7312231535015391,1.3096994692612747,1.0,-1.746265959015033,-0.9749642046687188,0.0,1.299952272891625,-2.3283546120200436,0.0,0.0,0.0,0.9911790887462407,0.11601424453676207,0.06363359851310324,0.007448102913461811,2.378840030687226,0.2348920884110406,0.1247396518242998
1.58,-0.7658843584838222,1.2897368527842508,1.0,-1.7196491370456677,-1.0211791446450962,0.0,1.361572192860128,-2.29286551606089,0.0,0.0,0.0,0.991177253404922,0.11429247533854407,0.06667660666343735,0.007688467826072565,2.378840030687226,0.2316195454126373,0.1307917829251919
1.6,-0.8000009668625006,1.2688571444489187,1.0,-1.6918095259318917,-1.0666679558166674,0.0,1.4222239410888897,-2.2557460345758553,0.0,0.0,0.0,0.9911755299247922,0.11248941041937266,0.06967547874729231,0.00790753331608696,2.378840030687226,0.22818279707141348,0.1367682203815248
1.62,-0.833548719375919,1.2470751911680247,1.0,-1.6627669215573662,-1.1113982925012253,0.0,1.4818643900016337,-2.217022562076488,0.0,0.0,0.0,0.99117393783779,0.11060606896610617,0.07262807517088288,0.008104637929393244,2.378840030687226,0.22458257440592455,0.1426647218021282
1.6400000000000001,-0.8665037612581783,1.2244064814127005,1.0,-1.6325419752169341,-1.1553383483442377,0.0,1.5404511311256501,-2.1767226336225787,0.0,0.0,0.0,0.9911724952999925,0.10864352794605348,0.07553226880345607,0.0082791766271656,2.378840030687226,0.22081971745373358,0.14847699533426284
1.6600000000000001,-0.8988426592015195,1.2008671341990924,1.0,-1.6011561789321231,-1.1984568789353593,0.0,1.5979425052471457,-2.134874905242831,0.0,0.0,0.0,0.9911712188812125,0.10660292296278664,0.07838594651436329,0.008430602965921302,2.378840030687226,0.21689518477458625,0.15420070204336067
1.68,-0.9305424180190192,1.1764738876266303,1.0,-1.5686318501688403,-1.240723224025359,0.0,1.6542976320338119,-2.0915091335584535,0.0,0.0,0.0,0.9911701233696635,0.10448544907593098,0.08118701082416743,0.008558431176533621,2.378840030687226,0.21281006310861506,0.1598314589400489
1.7,-0.9615804969957573,1.151244086976082,1.0,-1.5349921159681092,-1.2821073293276763,0.0,1.7094764391035684,-2.0466561546241455,0.0,0.0,0.0,0.9911692215940684,0.1022923615747748,0.08393338167033412,0.008662238131453672,2.378840030687226,0.20856557713296156,0.165364842674802
1.72,-0.9919348259168159,1.1251956723758654,1.0,-1.500260896501154,-1.3225797678890878,0.0,1.7634396905187837,-2.0003478620015382,0.0,0.0,0.0,0.991168524265456,0.10002497669524618,0.08662299828727876,0.008741665188953156,2.378840030687226,0.20416309925484544,0.17079639391740375
1.74,-1.0215838207607288,1.0983471660453772,1.0,-1.4644628880605028,-1.362111761014305,0.0,1.81614901468574,-1.9526171840806703,0.0,0.0,0.0,0.991168039840738,0.09768467226956119,0.08925382119971599,0.00879641990282617,2.378840030687226,0.19960415937375148,0.17612162243475504
1.76,-1.0505063990472048,1.0707176591244185,1.0,-1.4276235454992248,-1.4006751987296064,0.0,1.8675669316394752,-1.9034980606656329,0.0,0.0,0.0,0.9911677744099723,0.09527288829767071,0.0918238343273793,0.008826277585693276,2.378840030687226,0.19489045454015141,0.18133601287641943
1.78,-1.0786819948282287,1.0423267980980788,1.0,-1.3897690641307718,-1.4382426597709717,0.0,1.9176568796946287,-1.8530254188410291,0.0,0.0,0.0,0.9911677316090041,0.09279112742952302,0.0943310471982606,0.008831082713845922,2.378840030687226,0.19002385843311637,0.18643503127265304
1.8,-1.1060905733118682,1.0131947708267264,1.0,-1.350926361102302,-1.4747874310824909,0.0,1.966383241443321,-1.8012351481364024,0.0,0.0,0.0,0.9911679125589316,0.09024095534712843,0.09677349726655544,0.008810750161464147,2.378840030687226,0.185006430574424,0.1914141322445193
1.82,-1.1327126451083913,0.9833422921910518,1.0,-1.3111230562547358,-1.5102835268111883,0.0,2.013711369081584,-1.7481640750063143,0.0,0.0,0.0,0.9911683158335765,0.08762400103546908,0.09914925233050707,0.008765266252047028,2.378840030687226,0.17984042519245053,0.19626876692005446
1.84,-1.1585292800885674,0.9527905893623562,1.0,-1.2703874524831416,-1.5447057067847565,0.0,2.059607609046342,-1.6938499366441886,0.0,0.0,0.0,0.9911689374558385,0.08494195693144074,0.10145641304432021,0.008694689615021439,2.378840030687226,0.1745282996453662,0.20099439154436527
1.86,-1.1835221208442968,0.9215613867085677,1.0,-1.2287485156114235,-1.5780294944590623,0.0,2.104039325945416,-1.6383313541485647,0.0,0.0,0.0,0.9911697709235,0.08219657894026426,0.10369311551727703,0.008599151835751091,2.378840030687226,0.16907272231008885,0.2055864767650033
1.8800000000000001,-1.2076733957419905,0.88967689034672,1.0,-1.1862358537956268,-1.610231194322654,0.0,2.1469749257635384,-1.5816478050608356,0.0,0.0,0.0,0.9911708072647016,0.07938968630915252,0.10585753399213875,0.008478857887560825,2.378840030687226,0.1634765798411997,0.2100405175670801
1.9000000000000001,-1.2309659315594295,0.8571597723528711,1.0,-1.1428796964704948,-1.641287908745906,0.0,2.1883838783278744,-1.523839595293993,0.0,0.0,0.0,0.9911720351229647,0.07652316134848215,0.10794788359387418,0.008334086334928131,2.378840030687226,0.15774298370274312,0.21435204382535855
1.92,-1.253383165697111,0.8240331546406905,1.0,-1.098710872854254,-1.671177554262815,0.0,2.2282367390170865,-1.4649478304723387,0.0,0.0,0.0,0.9911734408712588,0.07359894899129209,0.10996242313872336,0.008165189297679105,2.378840030687226,0.15187527587564267,0.2185166314331093
1.94,-1.2749091579553977,0.7903205925201868,1.0,-1.0537607900269157,-1.6998788772738636,0.0,2.2665051696984846,-1.4050143867025542,0.0,0.0,0.0,0.9911750087542455,0.07061905618262251,0.1118994579926018,0.007972592166863093,2.378840030687226,0.14587703364449708,0.2225299139599013
1.96,-1.2955286018690984,0.7560460579482571,1.0,-1.0080614105976762,-1.7273714691587978,0.0,2.303161958878397,-1.3440818807969015,0.0,0.0,0.0,0.9911767210574511,0.06758555109101388,0.11375734296688896,0.007756793063969694,2.378840030687226,0.1397520733698811,0.2263875947828573
1.98,-1.3152268355914218,0.7212339224829729,1.0,-0.9616452299772973,-1.7536357807885625,0.0,2.3381810410514166,-1.2821936399697296,0.0,0.0,0.0,0.9911785583017465,0.06450056213540571,0.11553448523873341,0.007518362036292556,2.378840030687226,0.1335044531560653,0.2300854596282742
2.0,-1.333989852319562,0.6859089399537179,1.0,-0.914545253271624,-1.7786531364260827,0.0,2.3715375152347766,-1.2193936710288318,0.0,0.0,0.0,0.9911804994611463,0.06136627682171141,0.1172293472821696,0.007257939982533081,2.378840030687226,0.12713847432936867,0.23361938945312577
2.02,-1.3518043102544985,0.6500962288595126,1.0,-0.8667949718126834,-1.802405747005998,0.0,2.4032076626746637,-1.1557266290835777,0.0,0.0,0.0,0.9911825222015941,0.058184940384486135,0.11884044979558196,0.006976237304167362,2.378840030687226,0.12065868164920937,0.23698537358884142
2.04,-1.3686575420879368,0.6138212545080266,1.0,-0.8184283393440355,-1.8248767227839158,0.0,2.4331689637118874,-1.0912377857920472,0.0,0.0,0.0,0.9911846031380671,0.05495885423034742,0.12036637461039472,0.0066740322796626506,2.378840030687226,0.11406986218234696,0.24017952306312584
2.06,-1.3845375640096398,0.5771098109079872,1.0,-0.7694797478773162,-1.8460500853461863,0.0,2.461400113794915,-1.0259729971697549,0.0,0.0,0.0,0.9911867181070357,0.05169037418114396,0.12180576756531594,0.006352169160314273,2.378840030687226,0.10737704278080948,0.2431980840095298
2.08,-1.3994330842287406,0.5399880024278634,1.0,-0.7199840032371512,-1.8659107789716542,0.0,2.4878810386288723,-0.9599786709828682,0.0,0.0,0.0,0.9911888424510424,0.04838190851628622,0.12315734133004075,0.006011555988266058,2.378840030687226,0.10058548611551663,0.2460374510691674
2.1,-1.4133335110029872,0.5024822252338577,1.0,-0.6699763003118102,-1.8844446813373161,0.0,2.5125929084497547,-0.8933017337490803,0.0,0.0,0.0,0.9911909513119387,0.04503591581513517,0.12441987816203047,0.005653162139159943,2.378840030687226,0.09370068523055278,0.24869418068454996
2.12,-1.4262289601701998,0.4646191485204093,1.0,-0.6194921980272124,-1.9016386135602665,0.0,2.5355181514136884,-0.8259895973696165,0.0,0.0,0.0,0.9911930199291302,0.04165490260188779,0.12559223257984423,0.005278015593815524,2.378840030687226,0.08672835659730564,0.25116500418207033
2.14,-1.4381102621765938,0.42642569554656173,1.0,-0.5685675940620823,-1.9174803495687915,0.0,2.556640466091722,-0.7580901254161098,0.0,0.0,0.0,0.9911950239390489,0.038241420796975095,0.1266733339365122,0.004887199945345759,2.378840030687226,0.07967443166307854,0.2534468405373802
2.16,-1.448968968596962,0.3879290244916662,1.0,-0.5172386993222217,-1.9319586247959495,0.0,2.575944833061266,-0.6896515990962955,0.0,0.0,0.0,0.9911969396719834,0.03479806498058378,0.12766218887661887,0.004481851150148087,2.378840030687226,0.07254504690511088,0.2555368087168397
2.18,-1.458797358142092,0.34915650914404117,1.0,-0.4655420121920549,-1.9450631441894561,0.0,2.5934175255859415,-0.6207226829227398,0.0,0.0,0.0,0.9911987444423744,0.031327469475513146,0.128557883661109,0.004063154033246563,2.378840030687226,0.06534653241796794,0.2574322394884794
2.2,-1.467588442149131,0.3101357194363248,1.0,-0.4135142925817664,-1.9567845895321747,0.0,2.6090461193762327,-0.5513523901090218,0.0,0.0,0.0,0.9912004168287157,0.027832305258157487,0.12935958634434166,0.0036323385604738506,2.378840030687226,0.05808539907969992,0.2591306865975662
2.22,-1.4753359695510095,0.2708944018413494,1.0,-0.36119253578846583,-1.9671146260680128,0.0,2.6228195014240168,-0.48159004771795444,0.0,0.0,0.0,0.9912019369392849,0.02431527670794149,0.13006654878860546,0.0031906758919455543,2.378840030687226,0.050768324359725954,0.26062993720495475
2.24,-1.4820344313213814,0.23146045964248335,1.0,-0.3086139461899778,-1.9760459084285085,0.0,2.6347278779046777,-0.411485261586637,0.0,0.0,0.0,0.9912032866600894,0.02077911820701715,0.130678108502156,0.002739474233166953,2.378840030687226,0.04340213684875731,0.2619280214909099
2.2600000000000002,-1.4876790643919198,0.19186193309247618,1.0,-0.25581591078996824,-1.9835720858558932,0.0,2.644762781141191,-0.34108788105329096,0.0,0.0,0.0,0.9912044498816092,0.01722659060342718,0.1311936902878502,0.002280074501896714,2.378840030687226,0.03599379960789232,0.26302322133306943
2.2800000000000002,-1.4922658550391892,0.15212697947490278,1.0,-0.20283597263320371,-1.989687806718919,0.0,2.652917075625225,-0.27044796351093825,0.0,0.0,0.0,0.9912054127011921,0.013660477552234802,0.131612807690617,0.001813845830547599,2.378840030687226,0.02855039244995793,0.2639140779745106
2.3000000000000003,-1.4957915417386782,0.1122838530823908,1.0,-0.1497118041098544,-1.9943887223182377,0.0,2.6591849630909836,-0.1996157388131392,0.0,0.0,0.0,0.9912061635982703,0.010083581750297017,0.13193506423330958,0.001342180925406815,2.378840030687226,0.02107909328091878,0.2645993986065489
2.32,-1.4982536174839693,0.07236088512587506,1.0,-0.09648118016783341,-1.9976714899786256,0.0,2.6635619866381672,-0.1286415735571112,0.0,0.0,0.0,0.9912066935799292,0.006498721081396024,0.13216015443191897,0.0008664913052849639,2.378840030687226,0.013587158642398877,0.2650782618007024
2.34,-1.4996503315693925,0.032386463589144605,1.0,-0.04318195145219281,-1.9995337754258566,0.0,2.666045033901142,-0.05757593526959041,0.0,0.0,0.0,0.9912069962947703,0.002908724689325236,0.132287864582675,0.0003882024433323408,2.378840030687226,0.006081903607773052,0.2653500217351419
2.36,-1.499980690834899,-0.007610986956963125,1.0,0.010147982609284166,-1.999974254446532,0.0,2.6666323392620424,0.013530643479045555,0.0,0.0,0.0,0.9912070681134506,-0.0006835710027529321,0.1323180733152,-9.125116332206656e-05,2.378840030687226,-0.0014293188063507533,0.26541431117272696
2.38,-1.4992444603722652,-0.047603025566397325,1.0,0.06347070075519644,-1.998992613829687,0.0,2.6653234851062493,0.08462760100692858,0.0,0.0,0.0,0.991206908174749,-0.004275326307827688,0.13225075190759425,-0.0005704309707664471,2.378840030687226,-0.008939138544367998,0.26527104316020966
2.4,-1.4974421636921296,-0.08756121514136947,1.0,0.11674828685515928,-1.9965895515895062,0.0,2.6621194021193415,0.1556643824735457,0.0,0.0,0.0,0.9912065183965011,-0.007863702306234293,0.13208596436109848,-0.001047899386545456,2.378840030687226,-0.01644018955809054,0.26492041143118206
2.42,-1.49457508235174,-0.1274571426530871,1.0,0.1699428568707828,-1.9927667764689867,0.0,2.6570223686253156,0.2265904758277104,0.0,0.0,0.0,0.9912059034512499,-0.011445864873160941,0.13182386723377443,-0.001522224762949567,2.378840030687226,-0.023925130819697615,0.2643628895086223
2.44,-1.4906452550436784,-0.1672624393453792,1.0,0.22301658579383896,-1.9875270067249047,0.0,2.6500360089665396,0.29735544772511857,0.0,0.0,0.0,0.9912050707069558,-0.015018988683145149,0.13146470923444817,-0.001991986359408854,2.378840030687226,-0.031386667126083234,0.26359922851626694
2.46,-1.4856554761462097,-0.20694880090684026,1.0,0.2759317345424537,-1.9808739681949463,0.0,2.641165290926595,0.3679089793899382,0.0,0.0,0.0,0.9912040301336152,-0.018580261172466948,0.1310088305799474,-0.0024557792483418045,2.378840030687226,-0.03881756952253129,0.26263045372121074
2.48,-1.479609293736286,-0.24648800759714407,1.0,0.3286506767961921,-1.972812391648381,0.0,2.6304165221978413,0.43820090239492276,0.0,0.0,0.0,0.9912027941771158,-0.02212688644076893,0.13045666212041365,-0.0029122191393503613,2.378840030687226,-0.0462106951792363,0.26145785984298464
2.5,-1.4725110070666187,-0.2858519443132274,1.0,0.3811359257509699,-1.9633480094221583,0.0,2.6177973458962107,0.5081812343346265,0.0,0.0,0.0,0.9912013776021198,-0.025656089073841735,0.12980872423915715,-0.0033599470974287034,2.378840030687226,-0.053559006562158576,0.2600830051765839
2.52,-1.4643656635086149,-0.32501262058106944,1.0,0.43335016077475924,-1.9524875513448199,0.0,2.6033167351264264,0.5778002143663457,0.0,0.0,0.0,0.991199797306193,-0.029165117870293716,0.12906562553512968,-0.0037976341318524697,2.378840030687226,-0.060855589749866865,0.2585077045883857
2.54,-1.455179054963346,-0.36394219045884535,1.0,0.4852562539451271,-1.9402387399511283,0.0,2.586984986601504,0.6470083385935028,0.0,0.0,0.0,0.9911980721077924,-0.03265124945576758,0.12822806129759465,-0.00422398563362208,2.378840030687226,-0.06809367176015745,0.25673402145438295
2.56,-1.4449577137431093,-0.40261297233731363,1.0,0.5368172964497515,-1.9266102849908124,0.0,2.568813713321083,0.7157563952663353,0.0,0.0,0.0,0.9911962225110674,-0.03611179176946063,0.12729681178396246,-0.004637745640729929,2.378840030687226,-0.07526663676408071,0.2547642586195549
2.58,-1.4337089079264995,-0.44099746862335143,1.0,0.5879966248311352,-1.9116118772353328,0.0,2.5488158363137767,0.783995499774847,0.0,0.0,0.0,0.9911942704507315,-0.039544087408927474,0.12627274031301272,-0.005037700912084494,2.378840030687226,-0.0823680410802407,0.25260094846534376
2.6,-1.4214406361903076,-0.47906838529263573,1.0,0.6387578470568477,-1.895254181587077,0.0,2.5270055754494356,0.8516771294091302,0.0,0.0,0.0,0.9911922390205027,-0.04294551682048029,0.1251567911868321,-0.005422684792632095,2.378840030687226,-0.08939162685855034,0.25024684217901094
2.62,-1.4081616221219078,-0.5167986512975796,1.0,0.6890648683967728,-1.877548829495877,0.0,2.503398439327836,0.9187531578623638,0.0,0.0,0.0,0.991190152188796,-0.046313501323935045,0.12394998745574892,-0.00579158085404397,2.378840030687226,-0.09633133437969194,0.2477048983240675
2.64,-1.393881308016185,-0.5541614378167157,1.0,0.7388819170889542,-1.8585084106882466,0.0,2.478011214250995,0.9851758894519389,0.0,0.0,0.0,0.9911880345054833,-0.04964550596195327,0.12265342854133393,-0.006143326297255778,2.378840030687226,-0.1031813129139986,0.2449782708149506
2.66,-1.3786098481614126,-0.5911301773318347,1.0,0.7881735697757796,-1.838146464215217,0.0,2.4508619522869557,1.0508980930343728,0.0,0.0,0.0,0.9911859108035981,-0.05293904216578702,0.1212682877331558,-0.0064769151051324875,2.378840030687226,-0.10993593010102481,0.2420702964016448
2.68,-1.3623581016188548,-0.627678582519326,1.0,0.8369047766924346,-1.8164774688251397,0.0,2.4219699584335195,1.1158730355899127,0.0,0.0,0.0,0.9911838058998795,-0.056191670230824046,0.11979580957543035,-0.006791400935556784,2.378840030687226,-0.11658977982839068,0.23898448177106557
2.7,-1.3451376245012205,-0.6637806649422787,1.0,0.8850408865897049,-1.793516832668294,0.0,2.3913557768910585,1.1800545154529398,0.0,0.0,0.0,0.9911817442979916,-0.05940100159692926,0.11823730715998253,-0.007085899747277022,2.378840030687226,-0.12313768860527251,0.235724490371781
2.72,-1.326960661755475,-0.6994107535300498,1.0,0.9325476713733998,-1.7692808823406332,0.0,2.3590411764541774,1.243396895164533,0.0,0.0,0.0,0.9911797498981609,-0.06256470093017037,0.11659415934205619,-0.007359592152876275,2.378840030687226,-0.12957472044191043,0.23229412906709035
2.74,-1.3078401384558356,-0.7345435128321676,1.0,0.97939135044289,-1.7437868512744474,0.0,2.3250491350325966,1.3058551339238533,0.0,0.0,0.0,0.9911778457168133,-0.06568048800408244,0.11486780789545879,-0.007611725495212962,2.378840030687226,-0.135896180261492,0.22869733471874443
2.7600000000000002,-1.2877896506131525,-0.7691539610335857,1.0,1.0255386147114476,-1.7170528674842034,0.0,2.289403823312271,1.3673848196152634,0.0,0.0,0.0,0.9911760536195898,-0.06874613938014516,0.11305975462333226,-0.007841615645613288,2.378840030687226,-0.14209761588454214,0.22493816079977513
2.7800000000000002,-1.266823455507208,-0.8032174877184741,1.0,1.0709566502912988,-1.6890979406762772,0.0,2.2521305875683693,1.4279422003883984,0.0,0.0,0.0,0.9911743940708797,-0.07175948988860834,0.11117155844049845,-0.008048648523946123,2.378840030687226,-0.14817481863836654,0.2210207641300963
2.8000000000000003,-1.2449564615488071,-0.8367098713699233,1.0,1.1156131618265643,-1.6599419487317428,0.0,2.2132559316423235,1.4874842157687524,0.0,0.0,0.0,0.9911728859027249,-0.07471843391218888,0.10920483244285625,-0.008232281342464013,2.378840030687226,-0.15412382265504418,0.2169493918229588
2.82,-1.2222042176788688,-0.8696072965931142,1.0,1.1594763954574856,-1.629605623571825,0.0,2.1728074980957666,1.5459685272766475,0.0,0.0,0.0,0.9911715461056378,-0.07762092647646375,0.10716124097871328,-0.008392043576933758,2.378840030687226,-0.15994090293086782,0.2127283685240149
2.84,-1.1985829023120564,-0.9018863710497058,1.0,1.2025151613996077,-1.5981105364160753,0.0,2.130814048554767,1.60335354853281,0.0,0.0,0.0,0.9911703896435378,-0.08046498415198769,0.10504249673623914,-0.008527537670093682,2.378840030687226,-0.16562257222795945,0.20836208401795608
2.86,-1.1741093118328094,-0.9335241420914013,1.0,1.2446988561218684,-1.565479082443746,0.0,2.0873054432583276,1.6595984748291577,0.0,0.0,0.0,0.991169429294656,-0.08324868577426843,0.10285035786043507,-0.008638439473852103,2.378840030687226,-0.17116557690504752,0.2038549812704058
2.88,-1.148800848651956,-0.9644981130808632,1.0,1.2859974841078177,-1.5317344648692748,0.0,2.0423126198256996,1.714663312143757,0.0,0.0,0.0,0.9911686755198861,-0.08597017298872124,0.10058662511214797,-0.008724498437874127,2.378840030687226,-0.17656689176910395,0.1992115449652916
2.9,-1.1226755088323985,-0.9947862593883748,1.0,1.3263816791844998,-1.4969006784431982,0.0,1.9958675712575975,1.768508905579333,0.0,0.0,0.0,0.991168136359688,-0.08862765062860535,0.09825313908072515,-0.008785537553287757,2.378840030687226,-0.18182371404278114,0.19443629059025658
2.92,-1.0957518692926698,-1.0243670440528727,1.0,1.3658227254038302,-1.4610024923902263,0.0,1.9480033231869682,1.821096967205107,0.0,0.0,0.0,0.9911678173602728,-0.09121938693470492,0.09585177746092677,-0.008821453061171554,2.378840030687226,-0.18693345654442806,0.18953375411502593
2.94,-1.0680490745974651,-1.0532194330962081,1.0,1.4042925774616108,-1.4240654327966202,0.0,1.8987539103954936,1.8723901032821477,0.0,0.0,0.0,0.9911677215294199,-0.0937437136261634,0.09338445240369679,-0.008832213936265071,2.378840030687226,-0.19189374017801766,0.18450848230008932
2.96,-1.0395868233445364,-1.0813229104797586,1.0,1.4417638806396782,-1.3861157644593818,0.0,1.848154352612509,1.9223518408529041,0.0,0.0,0.0,0.9911678493219268,-0.09619902583241241,0.0908531079493558,-0.008817861156971734,2.378840030687226,-0.19670238582969787,0.17936502366567342
2.98,-1.0103853541576266,-1.1086574926927466,1.0,1.4782099902569954,-1.3471804722101688,0.0,1.7962406296135582,1.9709466536759939,0.0,0.0,0.0,0.9911681986543304,-0.09858378189655406,0.08825971755073263,-0.008778506773205456,2.378840030687226,-0.20135740576601224,0.17410792014388643
3.0,-0.980465431295418,-1.1352037429618922,1.0,1.5136049906158564,-1.3072872417272239,0.0,1.7430496556362984,2.0181399874878085,0.0,0.0,0.0,0.9911687649482139,-0.10089650306086692,0.08560628169270593,-0.008714332783972283,2.378840030687226,-0.20585699462626014,0.16874169943015138
3.02,-0.9498483298867084,-1.1609427850723009,1.0,1.5479237134297346,-1.2664644398489446,0.0,1.6886192531319262,2.0638982845729794,0.0,0.0,0.0,0.991169541201103,-0.10313577304531404,0.08289482561359254,-0.008625589836784273,2.378840030687226,-0.21019952009811427,0.1632708680436814
3.04,-0.9185558208023279,-1.1858563167897542,1.0,1.5811417557196723,-1.2247410944031039,0.0,1.632988125870805,2.1081890076262297,0.0,0.0,0.0,0.9911705180836675,-0.10530023753004336,0.08012739713280904,-0.008512595761082433,2.378840030687226,-0.21438351336162575,0.15769990510082943
3.06,-0.8866101551745471,-1.2099266228748609,1.0,1.613235497166481,-1.1821468735660627,0.0,1.5761958314214168,2.1509806628886414,0.0,0.0,0.0,0.9911716840616832,-0.10738860355289095,0.0773060645882486,-0.008375733947808146,2.378840030687226,-0.2184076593822455,0.15203325679969493
3.08,-0.8540340485749922,-1.233136587679811,1.0,1.6441821169064146,-1.1387120647666562,0.0,1.5182827530222083,2.192242822541886,0.0,0.0,0.0,0.9911730255409785,-0.10939963883283721,0.0744329148858704,-0.008215451587118354,2.378840030687226,-0.22227078712861112,0.14627533160941653
3.1,-0.8208506648623,-1.2554697073187868,1.0,1.6739596097583824,-1.0944675531497332,0.0,1.4592900708663108,2.2319461463445096,0.0,0.0,0.0,0.9911745270333865,-0.11133217103023002,0.0715100516630918,-0.008032257775998869,2.378840030687226,-0.22597185978570233,0.1404304961531151
3.12,-0.7870835997110195,-1.2769101014033617,1.0,1.702546801871149,-1.0494447996146927,0.0,1.3992597328195902,2.2700624024948652,0.0,0.0,0.0,0.9911761713415462,-0.11318508695438376,0.06853959356671901,-0.00782672150720422,2.378840030687226,-0.22950996502865853,0.13450307176952125
3.14,-0.7527568638334643,-1.297442524334549,1.0,1.7299233657793989,-1.003675818444619,0.0,1.3382344245928253,2.306564487705865,0.0,0.0,0.0,0.991177939760257,-0.11495733172890094,0.06552367264534145,-0.007599469550551487,2.378840030687226,-0.2328843054171877,0.12849733173482614
3.16,-0.7178948659064324,-1.3170523761434794,1.0,1.7560698348579726,-0.9571931545419098,0.0,1.276257539389213,2.3414264464772967,0.0,0.0,0.0,0.9911798122919723,-0.11664790792474958,0.062464432855358486,-0.007351184237131352,2.378840030687226,-0.23609418896515227,0.1224174991233431
3.18,-0.6825223952149571,-1.3357257128729827,1.0,1.780967617163977,-0.9100298602866094,0.0,1.2133731470488125,2.3746234895519693,0.0,0.0,0.0,0.9911817678739332,-0.11825587467076767,0.05936402867910953,-0.007082601156482848,2.378840030687226,-0.23913901993467085,0.11626774528302342
3.2,-0.6466646040254191,-1.3534492564927019,1.0,1.804599008656936,-0.8622194720338923,0.0,1.1496259627118564,2.406132011542581,0.0,0.0,0.0,0.99118378461439,-0.1197803467508728,0.05622462385292689,-0.006794506776219113,2.378840030687226,-0.24201828989899365,0.11005218889976343
3.22,-0.6103469897005439,-1.3702104043406924,1.0,1.82694720578759,-0.8137959862673919,0.0,1.0850613150231891,2.4359296077167865,0.0,0.0,0.0,0.9911858400353198,-0.12122049369682884,0.05304839020233813,-0.006487735993000366,2.378840030687226,-0.24473156911354402,0.10377489562274489
3.24,-0.5735953765690204,-1.3859972380847818,1.0,1.8479963174463758,-0.7647938354253605,0.0,1.0197251139004806,2.463995089928501,0.0,0.0,0.0,0.9911879113190566,-0.12257553888496896,0.04983750658110721,-0.006163169623137185,2.378840030687226,-0.24727849822989878,0.09743987822171896
3.2600000000000002,-0.5364358975626269,-1.4007985321973244,1.0,1.8677313762630994,-0.7152478634168359,0.0,0.9536638178891145,2.490308501684132,0.0,0.0,0.0,0.9911899755562579,-0.1238447586448102,0.04659415791031271,-0.0058217318404803955,2.378840030687226,-0.2496587803831663,0.09105109724610005
3.2800000000000002,-0.4988949756339066,-1.4146037619373293,1.0,1.8861383492497723,-0.6651933008452088,0.0,0.886924401126945,2.5148511323330296,0.0,0.0,0.0,0.9911920099926843,-0.12502748138701095,0.04332053431322242,-0.005464387568622311,2.378840030687226,-0.25187217367920073,0.0846124621550648
3.3000000000000003,-0.46099930496762903,-1.427403110834274,1.0,1.903204147779032,-0.6146657399568387,0.0,0.8195543199424515,2.5376055303720424,0.0,0.0,0.0,0.9911939922723253,-0.12612308675763473,0.04001883034133538,-0.0050921398338062045,2.378840030687226,-0.253918484104408,0.07812783288734759
3.3200000000000003,-0.42277583199938806,-1.4391874776682936,1.0,1.9189166368910582,-0.5637011093325174,0.0,0.7516014791100232,2.558555515854744,0.0,0.0,0.0,0.9911959006744929,-0.1271310048251902,0.03669124428661291,-0.004706027084322521,2.378840030687226,-0.2557975588775427,0.07160102183920602
3.34,-0.38425173625481956,-1.4499484829417757,1.0,1.9332646439223675,-0.5123356483397594,0.0,0.6831141977863459,2.5776861918964897,0.0,0.0,0.0,0.9911977143426003,-0.12805071530642315,0.0333399775746148,-0.00430712048156914,2.378840030687226,-0.2575092802598766,0.06503579621896405
3.36,-0.34545441102308927,-1.4596784748377605,1.0,1.9462379664503473,-0.46060588136411906,0.0,0.6141411751521587,2.5949839552671294,0.0,0.0,0.0,0.9911994135024647,-0.12888174683634343,0.02996723423299402,-0.0038965211673751016,2.378840030687226,-0.25905355983742484,0.058435880746633195
3.38,-0.30641144387837355,-1.4683705346609113,1.0,1.9578273795478816,-0.4085485918378314,0.0,0.5447314557837751,2.610436506063842,0.0,0.0,0.0,0.9912009796681013,-0.12962367628748347,0.026575220429568235,-0.003475357511636375,2.378840030687226,-0.26043033328654086,0.05180496066733231
3.4,-0.26715059706318994,-1.4760184817571835,1.0,1.9680246423429113,-0.35620079608425326,0.0,0.47493439477900434,2.624032856457215,0.0,0.0,0.0,0.9912023958331196,-0.13027612814290104,0.02316614407399035,-0.0030447823437950894,2.378840030687226,-0.2616395556321218,0.045146685047507074
3.42,-0.22769978774753336,-1.4826168779086957,1.0,1.976822503878261,-0.3035997169967111,0.0,0.4047996226622815,2.635763338504348,0.0,0.0,0.0,0.9912036466459879,-0.13083877392696583,0.019742214476870874,-0.0026059701712129856,2.378840030687226,-0.2626811970058759,0.03846467032334133
3.44,-0.18808706817783474,-1.4881610312006783,1.0,1.9842147082675712,-0.2507827575704463,0.0,0.3343770100939284,2.6456196110234282,0.0,0.0,0.0,0.9912047185675986,-0.13131133169750292,0.01630564206006031,-0.0021601143870496153,2.378840030687226,-0.26355523891058447,0.031762504071111364
3.46,-0.14834060572988295,-1.4926469993577487,1.0,1.990195999143665,-0.19778747430651059,0.0,0.26371663240868076,2.6535946655248868,0.0,0.0,0.0,0.9912056000097399,-0.13169356560240597,0.01285863811168376,-0.0017084244698597176,2.378840030687226,-0.26426167099500353,0.025043748969667545
3.48,-0.10848866287988172,-1.49607159254714,1.0,1.9947621233961865,-0.14465155050650896,0.0,0.1928687340086786,2.659682831194915,0.0,0.0,0.0,0.9912062814532542,-0.13198528550338487,0.009403414579419291,-0.0012521231767737523,2.378840030687226,-0.264800488342988,0.018311946925615663
3.5,-0.068559577107872,-1.4984323756468925,1.0,1.9979098341958565,-0.09141276947716268,0.0,0.1218836926362169,2.6638797789278086,0.0,0.0,0.0,0.9912067555448608,-0.13218634666906906,0.005942183895432084,-0.0007924437318238142,2.378840030687226,-0.26517168927953505,0.011570623332127328
3.52,-0.028581740747832922,-1.4997276699773943,1.0,1.9996368933031923,-0.03810898766377723,0.0,0.05081198355170297,2.666182524404256,0.0,0.0,0.0,0.9912070171718002,-0.1322966495392519,0.002477158826316966,-0.0003306270107261746,2.378840030687226,-0.2653752736957261,0.0048232914326560294
3.54,0.011416419201221854,-1.4999565544950366,1.0,1.999942072660049,0.015221892268295805,0.0,-0.020295856357727737,2.6665894302133983,0.0,0.0,0.0,0.9912070635136605,-0.13231613956163188,-0.00098944765864818,0.00013208127676828053,2.378840030687226,-0.2654112418939493,-0.0019265432389068415
3.56,0.0514064612888091,-1.4991188664471413,1.0,1.998825155262855,0.06854194838507881,0.0,-0.0913892645134384,2.66510020701714,0.0,0.0,0.0,0.9912068940709419,-0.13224480710198264,-0.004455422507669377,0.00059443340599122,2.378840030687226,-0.2652795939542979,-0.008675378369900288
3.58,0.09135994983680501,-1.4972152014876874,1.0,1.9962869353169166,0.12181326644907335,0.0,-0.16241768859876446,2.661715913755889,0.0,0.0,0.0,0.9912065106701126,-0.132082687428261,-0.007918552701772533,0.0010551824570697603,2.378840030687226,-0.2649803296226092,-0.015419710360498495
3.6,0.1312484751591696,-1.494246913253761,1.0,1.9923292176716814,0.1749979668788928,0.0,-0.23333062250519038,2.656438956895575,0.0,0.0,0.0,0.9912059174451158,-0.13182986076874256,-0.011376625372068792,0.001513085134402476,2.378840030687226,-0.2645134487202266,-0.02215602982332676
3.62,0.17104367376320095,-1.4902161124030258,1.0,1.9869548165373678,0.22805823168426792,0.0,-0.30407764224569056,2.64927308871649,0.0,0.0,0.0,0.9912051207954845,-0.1314864524438561,-0.014827427925706186,0.0019669045850503964,2.378840030687226,-0.2638789520751844,-0.02888081711918078
3.64,0.2107172485179308,-1.4851256651128997,1.0,1.9801675534838663,0.2809563313572411,0.0,-0.37460844180965475,2.640223404645155,0.0,0.0,0.0,0.9912041293214218,-0.13105263307096673,-0.01826874818724599,0.0024154132151246025,2.378840030687226,-0.2630768429741155,-0.035590537957030044
3.66,0.2502409887753325,-1.4789791910425056,1.0,1.9719722547233407,0.3336546517004434,0.0,-0.4448728689339245,2.6292963396311206,0.0,0.0,0.0,0.9912029537364063,-0.13052861884093425,-0.021698374562177516,0.0028573955031286997,2.378840030687226,-0.26210712913371403,-0.0422816390866827
3.68,0.2895867904300454,-1.4717810607588429,1.0,1.9623747476784572,0.3861157205733939,0.0,-0.5148209607645251,2.6164996635712763,0.0,0.0,0.0,0.9912016067580747,-0.12991467186484648,-0.025114096229243602,0.0032916508090373737,2.378840030687226,-0.26096982519004974,-0.04895054411271338
3.7,0.32872667590332805,-1.4635363926290144,1.0,1.9513818568386858,0.43830223453777073,0.0,-0.5844029793836942,2.601842475784914,0.0,0.0,0.0,0.9912001029783304,-0.12921110058889398,-0.028513703368190688,0.0037169961776625416,2.378840030687226,-0.2596649557033577,-0.05559364945857581
3.72,0.3676328140370426,-1.4542510491807132,1.0,1.9390013989076176,0.4901770853827235,0.0,-0.6535694471769646,2.58533519854349,0.0,0.0,0.0,0.9911984587138123,-0.1284182602749128,-0.031894987429488014,0.004132269134578698,2.378840030687226,-0.2581925586751259,-0.06220732051015898
3.74,0.4062775398835357,-1.4439316329335616,1.0,1.925242177244749,0.541703386511381,0.0,-0.7222711820151746,2.566989569659665,0.0,0.0,0.0,0.9911966918380435,-0.12753655354367602,-0.03525574145247144,0.004536330472549448,2.378840030687226,-0.25655268957331545,-0.06878788796844693
3.7600000000000002,0.4446333743773203,-1.4325854817042638,1.0,1.910113975605685,0.5928444991697605,0.0,-0.7904593322263472,2.546818634140913,0.0,0.0,0.0,0.9911948215967559,-0.12656643097755862,-0.03859376043825391,0.004928067026019946,2.378840030687226,-0.2547454258603588,-0.07533164444133544
3.7800000000000002,0.48267304387458276,-1.4202206633889134,1.0,1.8936275511852179,0.6435640584994436,0.0,-0.8580854113325915,2.524836734913624,0.0,0.0,0.0,0.9911928684080521,-0.12550839177873904,-0.04190684178361562,0.00530639443081866,2.378840030687226,-0.2527708720171724,-0.08183484130506513
3.8000000000000003,0.5203694995466324,-1.4068459702261606,1.0,1.8757946269682142,0.6938259993955098,0.0,-0.9251013325273464,2.5010595026242854,0.0,0.0,0.0,0.9911908536492317,-0.1243629844786264,-0.04519278578192951,0.005670259865748253,2.378840030687226,-0.25062916505473776,-0.08829368586611341
3.8200000000000003,0.5576959366134804,-1.3924709125453258,1.0,1.856627883393768,0.7435945821513072,0.0,-0.9914594428684096,2.475503844525024,0.0,0.0,0.0,0.9911887994322489,-0.12313080769372739,-0.04844939619698859,0.006018644772242887,2.378840030687226,-0.24832048050287006,-0.09470433885470153
3.84,0.5946258134038824,-1.377105712003901,1.0,1.8361409493385348,0.7928344178718433,0.0,-1.0571125571624576,2.4481879324513796,0.0,0.0,0.0,0.9911867283699167,-0.12181251092267817,-0.05167448091538856,0.006350567547732855,2.378840030687226,-0.24584503886354167,-0.10106291228134445
3.86,0.6311328702283108,-1.3607612943192404,1.0,1.8143483924256538,0.8415104936377478,0.0,-1.1220139915169969,2.4191311899008716,0.0,0.0,0.0,0.9911846633350823,-0.1204087953786773,-0.054865852682868865,0.006665086207790585,2.378840030687226,-0.2432031125135779,-0.10736546768801225
3.88,0.667191148051388,-1.3434492814996295,1.0,1.7912657086661727,0.8895881974018507,0.0,-1.1861175965358008,2.3883542782215637,0.0,0.0,0.0,0.9911826272151183,-0.1189204148510628,-0.05802132992972125,0.006961301011539354,2.378840030687226,-0.2403950330386616,-0.11360801482547189
3.9,0.7027750069505645,-1.3251819835802303,1.0,1.7669093114403072,0.9370333426007527,0.0,-1.2493777901343368,2.3558790819204094,0.0,0.0,0.0,0.9911806426641606,-0.1173481765892805,-0.061138737690056094,0.0072383570441955526,2.378840030687226,-0.23742119897737202,-0.11978651078824121
3.92,0.7378591443478675,-1.3059723898697986,1.0,1.741296519826398,0.9838121924638232,0.0,-1.3117495899517642,2.321728693101864,0.0,0.0,0.0,0.99117873185559,-0.11569294220200116,-0.06421590861933567,0.007495446749989593,2.378840030687226,-0.2342820839504408,-0.1258968596382053
3.94,0.7724186130017751,-1.285834159714391,1.0,1.7144455462858548,1.0298914840023667,0.0,-1.373188645336489,2.285927395047806,0.0,0.0,0.0,0.9911769162373203,-0.11395562856365823,-0.06725068411417093,0.007731812408080192,2.378840030687226,-0.23097824514653092,-0.1319349125473499
3.96,0.8064288387464333,-1.2647816127846259,1.0,1.6863754837128344,1.0752384516619111,0.0,-1.433651268882548,2.248500644950446,0.0,0.0,0.0,0.99117521629247,-0.11213720872020352,-0.07024091553791106,0.007946748543446968,2.378840030687226,-0.22751033213165447,-0.13789646848918613
3.98,0.8398656379655791,-1.2428297188934094,1.0,1.6571062918578792,1.119820850620772,0.0,-1.4930944674943627,2.2094750558105054,0.0,0.0,0.0,0.9911736513080142,-0.11023871278542016,-0.07318446555503487,0.008139604264125916,2.378840030687226,-0.22387909594485134,-0.14377727550724195
4.0,0.872705234788756,-1.21999408735137,1.0,1.62665878313516,1.1636069797183413,0.0,-1.5514759729577883,2.1688783775135465,0.0,0.0,0.0,0.9911722391539843,-0.1082612288186962,-0.07607920957678484,0.008309785515550814,2.378840030687226,-0.22008539843799085,-0.1495730325874547
4.0200000000000005,0.9049242779976059,-1.1962909558675563,1.0,1.5950546078234085,1.2065657039968078,0.0,-1.6087542719957437,2.126739477097878,0.0,0.0,0.0,0.9911709960757448,-0.10620590367474946,-0.07892303731986171,0.008456757242189656,2.378840030687226,-0.21613022181255795,-0.15527939215937758
4.04,0.9364998576301871,-1.171737179003312,1.0,1.5623162386710825,1.2486664768402493,0.0,-1.664888635786999,2.0830883182281097,0.0,0.0,0.0,0.9911699365017989,-0.10407394381542352,-0.08171385447931404,0.00858004544612859,2.378840030687226,-0.21201467830110887,-0.16089196324875643
4.0600000000000005,0.9674095212715459,-1.1463502161875132,1.0,1.5284669549166843,1.2898793616953945,0.0,-1.7198391489271927,2.037955939888912,0.0,0.0,0.0,0.9911690728694732,-0.10186661607333454,-0.08444958451603128,0.008679239131768235,2.378840030687226,-0.20774001993576618,-0.16640631530126826
4.08,0.9976312900189233,-1.1201481193017195,1.0,1.493530825735626,1.3301750533585643,0.0,-1.773566737811419,1.9913744343141677,0.0,0.0,0.0,0.9911684154707043,-0.09958524835686766,-0.0871281705584562,0.008753992125367357,2.378840030687226,-0.20330764834076126,-0.17181798269393567
4.1,1.027143674110281,-1.0931495198440297,1.0,1.457532693125373,1.369524898813708,0.0,-1.8260331984182774,1.943376924167164,0.0,0.0,0.0,0.9911679723199804,-0.097231230285787,-0.08974757741730251,0.008804024757809791,2.378840030687226,-0.19871912448068357,-0.17712246994701397
4.12,1.0559256882049963,-1.0653736156808111,1.0,1.4204981542410815,1.407900917606662,0.0,-1.877201223475549,1.8939975389881085,0.0,0.0,0.0,0.9911677490463114,-0.09480601374656135,-0.09230579371117105,0.008829125398691368,2.378840030687226,-0.19397617829087377,-0.18231525764488876
4.14,1.0839568663058874,-1.0368401573956907,1.0,1.3824535431942542,1.4452758217411832,0.0,-1.9270344289882442,1.8432713909256722,0.0,0.0,0.0,0.9911677488108694,-0.0923111133564097,-0.0948008341000359,0.008829151829636927,2.378840030687226,-0.18908071811138377,-0.18739180906979214
4.16,1.1112172763119543,-1.0075694342455221,1.0,1.3434259123273629,1.4816230350826058,0.0,-1.975497380110141,1.791234549769817,0.0,0.0,0.0,0.9911679722517021,-0.08974810682505617,-0.09723074162259972,0.008804032444672785,2.378840030687226,-0.18403483984124916,-0.19234757754691056
4.18,1.1376875341914703,-0.9775822597333342,1.0,1.303443012977779,1.5169167122552938,0.0,-2.0225556163403917,1.7379240173037052,0.0,0.0,0.0,0.9911684174566394,-0.08711863520325977,-0.09959359013251705,0.00875376726550843,2.378840030687226,-0.1788408357256029,-0.19717801449371297
4.2,1.1633488177653744,-0.9468999568084824,1.0,1.2625332757446432,1.5511317570204992,0.0,-2.068175676027332,1.6833777009928577,0.0,0.0,0.0,0.9911690799652196,-0.08442440300734252,-0.10188748682746211,0.008678428759731693,2.378840030687226,-0.17350120268450314,-0.20187857816018107
4.22,1.1881828800911283,-0.9155443427045749,1.0,1.2207257902727664,1.5842438401215042,0.0,-2.1123251201620055,1.6276343870303551,0.0,0.0,0.0,0.9911699528001318,-0.08166717820921543,-0.10411057486397188,0.008578162450203288,2.378840030687226,-0.16801865008944158,-0.2064447430399976
4.24,1.2121720624375598,-0.8835377134259028,1.0,1.1780502845678704,1.616229416583413,0.0,-2.1549725554445507,1.5707337127571606,0.0,0.0,0.0,0.9911710265283359,-0.07884879208176372,-0.10626103604995223,0.008453187304356655,2.378840030687226,-0.16239610689140477,-0.21087200992580457
4.26,1.235299306841433,-0.850902827893453,1.0,1.1345371038579373,1.647065742455244,0.0,-2.196087656606992,1.5127161384772496,0.0,0.0,0.0,0.9911722893516597,-0.0759711388899441,-0.10833709360568645,0.00830379589267388,2.378840030687226,-0.1566367280032945,-0.21515591657436994
4.28,1.2575481682368412,-0.8176628917617363,1.0,1.0902171890156485,1.676730890982455,0.0,-2.2356411879766065,1.4536229186875311,0.0,0.0,0.0,0.9911737272263078,-0.07303617541853642,-0.1103370149831652,0.0081303543063225,2.378840030687226,-0.15074389983953176,-0.21929204894000187
4.3,1.2789028261487778,-0.7838415409179773,1.0,1.045122054557303,1.7052037681983705,0.0,-2.273605024264494,1.3934960727430705,0.0,0.0,0.0,0.9911753240103357,-0.07004592032820996,-0.11225911473255304,0.007933301824803897,2.378840030687226,-0.14472124491695704,-0.22327605292694153
4.32,1.2993480959425923,-0.7494628246753536,1.0,0.9992837662338049,1.7324641279234565,0.0,-2.3099521705646087,1.3323783549784065,0.0,0.0,0.0,0.9911770616377753,-0.06700245333238666,-0.11410175740366052,0.007713150325482374,2.378840030687226,-0.13857262542375237,-0.22710364660378457
4.34,1.3188694396213043,-0.7145511886722931,1.0,0.952734918229724,1.758492586161739,0.0,-2.344656781548985,1.2703132243062987,0.0,0.0,0.0,0.9911789203177139,-0.06390791418833529,-0.11586336046938575,0.007470483428033545,2.378840030687226,-0.13230214566720136,-0.23077063281542953
4.36,1.3374529761631295,-0.6791314574899232,1.0,0.9055086099865644,1.7832706348841727,0.0,-2.3776941798455633,1.207344813315419,0.0,0.0,0.0,0.991180878756279,-0.06076450149697528,-0.11754239725727281,0.007205955368166317,2.378840030687226,-0.1259141533166705,-0.23427291212067214
4.38,1.3550854913918382,-0.6432288170000938,1.0,0.8576384226667918,1.8067806551891177,0.0,-2.4090408735854902,1.1435178968890556,0.0,0.0,0.0,0.9911829143991229,-0.05757447130704158,-0.11913739987458637,0.00692028959642949,2.378840030687226,-0.11941323936536982,-0.23760649597654337
4.4,1.371754447372951,-0.6068687964564745,1.0,0.8091583952752993,1.8290059298306014,0.0,-2.4386745731074684,1.0788778603670657,0.0,0.0,0.0,0.9911850036916865,-0.054340135520513616,-0.12064696211166968,0.006614277099500662,2.378840030687226,-0.11280423674316198,-0.24076752008395697
4.42,1.387447991329069,-0.5700772503415057,1.0,0.760103000455341,1.8499306551054253,0.0,-2.4665742068072336,1.0134706672737879,0.0,0.0,0.0,0.9911871223542211,-0.05106386009757129,-0.12206974230782218,0.006288774443061817,2.378840030687226,-0.10609221752299622,-0.2437522578032969
4.44,1.4021549640680235,-0.532880339982064,1.0,0.7105071199760853,1.869539952090698,0.0,-2.4927199361209302,0.9473428266347803,0.0,0.0,0.0,0.9911892456682888,-0.04774806306076441,-0.12340446616353766,0.005944701537175968,2.378840030687226,-0.0992824886753251,-0.246557133543434
4.46,1.4158649079178232,-0.4953045149469709,1.0,0.6604060199292946,1.8878198772237642,0.0,-2.5170931696316856,0.8805413599057261,0.0,0.0,0.0,0.9911913487712372,-0.04439521229958755,-0.12464992948267961,0.005583039126978266,2.378840030687226,-0.09238058633808796,-0.24917873602340213
4.48,1.428568074162787,-0.4573764942395111,1.0,0.6098353256526815,1.9047574322170495,0.0,-2.5396765762893994,0.8131137675369087,0.0,0.0,0.0,0.9911934069549732,-0.0410078231781904,-0.12580500082806215,0.00520482601345998,2.378840030687226,-0.08539226858430982,-0.2516138313027403
4.5,1.440255429975549,-0.4191232472983888,1.0,0.5588309963978517,1.920340573300732,0.0,-2.560454097734309,0.7451079951971356,0.0,0.0,0.0,0.9911953959652325,-0.03758845595054691,-0.12686862407394606,0.004811156011137574,2.378840030687226,-0.07832350668497615,-0.2538593754744498
4.5200000000000005,1.4509186648400243,-0.3805719748205868,1.0,0.5074292997607824,1.934558219786699,0.0,-2.5794109597155988,0.6765723996810432,0.0,0.0,0.0,0.9911972922974651,-0.034139712988996096,-0.1278398208391713,0.004403174651433773,2.378840030687226,-0.07118047488130555,-0.25591252691367905
4.54,1.4605501964607566,-0.34175008941980656,1.0,0.4556667858930754,1.9474002619476753,0.0,-2.5965336825969003,0.6075557145241005,0.0,0.0,0.0,0.9911990734854497,-0.030664235833671637,-0.12871769278502246,0.003982075642632209,2.378840030687226,-0.06396953869768165,-0.2577706579757959
4.5600000000000005,1.4691431761544567,-0.3026851961341933,1.0,0.4035802615122578,1.9588575682059421,0.0,-2.611810090941256,0.538107015349677,0.0,0.0,0.0,0.991200718378784,-0.027164702071902344,-0.1295014237624715,0.0035490970992722516,2.378840030687226,-0.056697241843977376,-0.25943136603940453
4.58,1.4766914937198852,-0.26340507279726844,1.0,0.3512067637296913,1.9689219916265135,0.0,-2.6252293221686847,0.4682756849729217,0.0,0.0,0.0,0.9912022074055062,-0.023643822058204336,-0.1301902817941586,0.0031055175558030793,2.378840030687226,-0.049370291773567485,-0.2608924837932378
4.6000000000000005,1.4831897817826294,-0.22393765028595813,1.0,0.2985835337146108,1.9775863757101726,0.0,-2.63678183428023,0.39811137828614773,0.0,0.0,0.0,0.9912035228162606,-0.020104335486939174,-0.1307836208773524,0.0026526517811845504,2.378840030687226,-0.041995543980582445,-0.26215208867064654
4.62,1.4886334196116753,-0.18431099265982506,1.0,0.2457479902131001,1.9848445594822337,0.0,-2.646459412642978,0.3276639869508001,0.0,0.0,0.0,0.9912046489066423,-0.01654900783110336,-0.13128088259517653,0.002191846412885785,2.378840030687226,-0.03457998513665748,-0.26320851134162604
4.64,1.4930185364050665,-0.144553277205579,1.0,0.192737702940772,1.990691381873422,0.0,-2.654255175831229,0.2569836039210293,0.0,0.0,0.0,0.9912055722146277,-0.012980626661979144,-0.1316815975245773,0.0017244754303594799,2.378840030687226,-0.027130715183153277,-0.264060343179908
4.66,1.4963420140423125,-0.10469277440108068,1.0,0.13959036586810758,1.9951226853897501,0.0,-2.660163580519667,0.18612048782414342,0.0,0.0,0.0,0.9912062816903289,-0.009401997865534289,-0.13198538643084295,0.0012519354895414111,2.378840030687226,-0.019654928509315325,-0.2647064426315149
4.68,1.4986014893015853,-0.06475782781309436,1.0,0.08634377041745914,1.9981353190687805,0.0,-2.6641804254250405,0.11512502722327884,0.0,0.0,0.0,0.9912067688356743,-0.005815941772465859,-0.13219196123993976,0.0007756411412148167,2.378840030687226,-0.012159894359736677,-0.26514594042120687
4.7,1.4997953555401347,-0.02477683394304224,1.0,0.033035778590722986,1.9997271407201795,0.0,-2.6663028542935727,0.04404770478763065,0.0,0.0,0.0,0.9912070278120423,-0.0022252892196323484,-0.1323011257814968,0.0002970199571694475,2.378840030687226,-0.0046529366255238375,-0.2653782435443224
4.72,1.4999227638367212,0.015221777964854605,1.0,-0.020295703953139472,1.9998970184489617,0.0,-2.6665293579319487,-0.02706093860418596,0.0,0.0,0.0,0.9912070555143146,0.0013671224386901588,-0.13231277629692484,-0.00018249241104025319,2.378840030687226,0.0028585868174807955,-0.26540303800343623
4.74,1.4989836235952587,0.055209566138740375,1.0,-0.07361275485165383,1.9986448314603449,0.0,-2.6648597752804597,-0.09815033980220511,0.0,0.0,0.0,0.9912068516102932,0.004958453350798392,-0.13222690170888224,-0.0006614572152915981,2.378840030687226,0.010367305053457844,-0.26522029026185523
4.76,1.4969786026092333,0.09515809650317403,1.0,-0.12687746200423203,1.9959714701456444,0.0,-2.661295293527526,-0.16916994933897603,0.0,0.0,0.0,0.9912064185449191,0.008545865199546629,-0.13204358365007224,-0.0011384376101953573,2.378840030687226,0.017865855180205826,-0.2648302473990416
4.78,1.4939091265868565,0.13503896289773404,1.0,-0.18005195053031206,1.991878835449142,0.0,-2.6558384472655225,-0.2400692673737494,0.0,0.0,0.0,0.9912057615092308,0.012126525226961164,-0.13176299625115667,-0.001612003642499772,2.378840030687226,0.02534690329583722,-0.26423343596636384
4.8,1.4897773781372892,0.17482380727573915,1.0,-0.23309840970098553,1.9863698375163854,0.0,-2.6484931166885137,-0.310797879601314,0.0,0.0,0.0,0.9912048883745089,0.01569761023218409,-0.13138540568937207,-0.0020807372046876844,2.378840030687226,0.032803165243808,-0.2634306595549276
4.82,1.4845862952186542,0.21448433986879128,1.0,-0.28597911982505503,1.9794483936248721,0.0,-2.6392645248331625,-0.38130549310007333,0.0,0.0,0.0,0.9912038095925427,0.019256310523726346,-0.13091116950121665,-0.0025432369272025517,2.378840030687226,0.04022742694509885,-0.2624229951003687
4.84,1.4783395690489476,0.2539923593027402,1.0,-0.33865647907032026,1.9711194253985966,0.0,-2.628159233864795,-0.45154197209376035,0.0,0.0,0.0,0.9912025380634416,0.022799833807456593,-0.13034073566431487,-0.002998122984323718,2.378840030687226,0.0476125641523929,-0.261211787962234
4.86,1.4710416414813259,0.2933197726508164,1.0,-0.3910930302010885,1.9613888553084344,0.0,-2.6151851404112456,-0.5214573736014513,0.0,0.0,0.0,0.991201088972863,0.02632540899240352,-0.12967464145524027,-0.003444041789532321,2.378840030687226,0.054951561469517504,-0.2597986458276751
4.88,1.4626977018456444,0.3324386154096275,1.0,-0.44325148721283664,1.9502636024608593,0.0,-2.600351469947812,-0.5910019829504488,0.0,0.0,0.0,0.9911994796009554,0.02983028989725436,-0.12891351209166638,-0.0038796705572482497,2.378840030687226,0.06223753048996099,-0.25818543150046014
4.9,1.4533136832584832,0.3713210713838648,1.0,-0.49509476184515305,1.9377515776779777,0.0,-2.5836687702373036,-0.6601263491268707,0.0,0.0,0.0,0.9911977291056958,0.0333117588414144,-0.12805805916869856,-0.004303721709064142,2.378840030687226,0.06946372692077485,-0.2563742546466161
4.92,1.4428962584042946,0.40993949246551853,1.0,-0.5465859899540247,1.923861677872393,0.0,-2.565148903829857,-0.7287813199386997,0.0,0.0,0.0,0.991195858283641,0.03676713010560072,-0.12710907890060522,-0.004714947104030641,2.378840030687226,0.07662356657227955,-0.25436746257717013
4.94,1.431452834790662,0.44826641829360514,1.0,-0.5976885577248069,1.9086037797208828,0.0,-2.5448050396278434,-0.7969180769664092,0.0,0.0,0.0,0.9911938893113956,0.040193753248201736,-0.12606745018039,-0.005112142074141322,2.378840030687226,0.08371064010948517,-0.2521676301563489
4.96,1.4189915494810537,0.48627459578036614,1.0,-0.6483661277071548,1.8919887326414049,0.0,-2.522651643521873,-0.8644881702762064,0.0,0.0,0.0,0.9911918454713393,0.04358901626497868,-0.12493413247072983,-0.005494149247896643,2.378840030687226,0.09071872647759892,-0.24977754893016768
4.98,1.4055212633088057,0.5239369984901036,1.0,-0.6985826646534714,1.8740283510784077,0.0,-2.4987044681045436,-0.9314435528712952,0.0,0.0,0.0,0.9911897508653222,0.04695034858114134,-0.12371016354072031,-0.005859862146673887,2.378840030687226,0.09764180493117863,-0.24720021557545713
5.0,1.3910515545764635,0.5612268458568287,1.0,-0.7483024611424383,1.8547354061019512,0.0,-2.4729805414692683,-0.9977366148565843,0.0,0.0,0.0,0.9911876301201633,0.05027522386633773,-0.12239665706363093,-0.006208228540563416,2.378840030687226,0.1044740656139849,-0.24443881977309778
5.0200000000000005,1.375592712244941,0.5981176222271061,1.0,-0.7974901629694748,1.834123616326588,0.0,-2.445498155102117,-1.063320217292633,0.0,0.0,0.0,0.9911855080888354,0.05356116266467008,-0.12099480009145516,-0.006538253552327804,2.378840030687226,0.11120991865413098,-0.2414967316114789
5.04,1.3591557286173677,0.6345830957144952,1.0,-0.8461107942859937,1.8122076381564902,0.0,-2.4162768508753203,-1.1281477257146582,0.0,0.0,0.0,0.9911834095512243,0.056805734833432354,-0.11950585042246348,-0.006849002500168921,2.378840030687226,0.11784400175634686,-0.23837748862706531
5.0600000000000005,1.3417522915227968,0.6705973368522453,1.0,-0.8941297824696604,1.789003055363729,0.0,-2.3853374071516384,-1.1921730432928803,0.0,0.0,0.0,0.9911813589182858,0.060006561785875726,-0.11793113387821012,-0.007139603472026763,2.378840030687226,0.12437118628985441,-0.2350847825884319
5.08,1.3233947760053568,0.7061347370309237,1.0,-0.9415129827078982,1.7645263680071424,0.0,-2.352701824009523,-1.2553506436105308,0.0,0.0,0.0,0.9911793799433152,0.06316131853488574,-0.11627204150653392,-0.007409249626153075,2.378840030687226,0.13078658188615178,-0.23162244612837046
5.1000000000000005,1.3040962355247372,0.7411700267079134,1.0,-0.9882267022772179,1.7387949806996497,0.0,-2.318393307599533,-1.3176356030362903,0.0,0.0,0.0,0.9911774954438762,0.06626773553602207,-0.11453002672701286,-0.007657201214682925,2.378840030687226,0.13708553957579037,-0.2279944393256974
5.12,1.2838703926742847,0.77567829337579,1.0,-1.0342377245010532,1.7118271902323796,0.0,-2.282436253643173,-1.378983632668071,0.0,0.0,0.0,0.9911757270377265,0.0693236003298751,-0.11270660243511109,-0.00788278732884303,2.378840030687226,0.1432636535067411,-0.2242048363343876
5.14,1.2627316294232844,0.809634999276845,1.0,-1.0795133323691266,1.6836421725643793,0.0,-2.244856230085839,-1.439351109825502,0.0,0.0,0.0,0.9911740948958256,0.07232675898514843,-0.11080333808088409,-0.008085407366269308,2.378840030687226,0.1493167612991025,-0.22025781215269613
5.16,1.240694976890395,0.8430159988511146,1.0,-1.124021331801486,1.6542599691871933,0.0,-2.2056799589162575,-1.498695109068648,0.0,0.0,0.0,0.991172617515223,0.07527511734524125,-0.10882185673761778,-0.008264532222638203,2.378840030687226,0.1552409431015489,-0.2161576296191905
5.18,1.2177761046554845,0.8757975559055383,1.0,-1.1677300745407178,1.6237014728739794,0.0,-2.1649352971653055,-1.556973432720957,0.0,0.0,0.0,0.9911713115143064,0.07816664208239432,-0.10676383217515804,-0.00841970521143351,2.378840030687226,0.16103251942403263,-0.2119086267162027
5.2,1.1939913096174757,0.9079563604920369,1.0,-1.210608480656049,1.5919884128233008,0.0,-2.1226512170977343,-1.614144640874732,0.0,0.0,0.0,0.9911701914525475,0.08099936156464699,-0.1046309859519733,-0.008550542717158712,2.378840030687226,0.1666880478287811,-0.20751520425429004
5.22,1.1693575044061322,0.9394695454824828,1.0,-1.2526260606433104,1.5591433392081762,0.0,-2.0788577856109014,-1.670168080857747,0.0,0.0,0.0,0.9911692696765265,0.0837713665419323,-0.10242508453918732,-0.008656734588654963,2.378840030687226,0.17220431856758278,-0.2029818140040056
5.24,1.1438922053560034,0.9703147028288186,1.0,-1.2937529371050915,1.525189607141338,0.0,-2.033586142855117,-1.725003916140122,0.0,0.0,0.0,0.9911685561936434,0.08648081065861188,-0.10014793648893507,-0.008738044280390003,2.378840030687226,0.1775783492577958,-0.19831294733372928
5.26,1.1176135200511146,1.0004698994967098,1.0,-1.3339598659956131,1.4901513600681529,0.0,-1.9868684800908705,-1.7786131546608175,0.0,0.0,0.0,0.9911680585745467,0.08912591080060248,-0.09780138965845783,-0.00879430875063766,2.378840030687226,0.1828073786924666,-0.1935131244046795
5.28,1.0905401344492138,1.0299136930614576,1.0,-1.373218257415277,1.4540535125989518,0.0,-1.9387380167986024,-1.8309576765537026,0.0,0.0,0.0,0.9911677818849415,0.09170494728599342,-0.09538732850036011,-0.008825438126370318,2.378840030687226,0.18788885988154597,-0.18858688396656254
5.3,1.0626912995947768,1.0586251469550327,1.0,-1.4115001959400435,1.4169217327930357,0.0,-1.889228977057381,-1.8820002612533913,0.0,0.0,0.0,0.9911677286470573,0.09421626390866998,-0.0929076714284364,-0.008831415145436547,2.378840030687226,0.1928204524214973,-0.18353877378980532
5.32,1.034086817930178,1.0865838453534262,1.0,-1.448778460471235,1.3787824239069042,0.0,-1.8383765652092054,-1.9317046139616467,0.0,0.0,0.0,0.9911678988307032,0.09665826784497455,-0.09036436826742943,-0.008812294387196457,2.378840030687226,0.1976000142897742,-0.1783733417629665
5.34,1.0047470292147984,1.1137699076937018,1.0,-1.4850265435916024,1.3396627056197312,0.0,-1.7862169408263082,-1.9800353914554698,0.0,0.0,0.0,0.9911682898734924,0.09902942943382945,-0.08775939779404049,-0.008768201303241395,2.378840030687226,0.20222559315878283,-0.17309512767689927
5.36,0.9746927960620395,1.1401640028104567,1.0,-1.5202186704139424,1.299590394749386,0.0,-1.7327871929991814,-2.0269582272185898,0.0,0.0,0.0,0.9911688967294845,0.1013282818410422,-0.08509476537546105,-0.008699331060138562,2.378840030687226,0.20669541732122487,-0.1677086557105305
5.38,0.9439454891045828,1.1657473626816017,1.0,-1.5543298169088025,1.258593985472777,0.0,-1.6781253139637027,-2.072439755878403,0.0,0.0,0.0,0.9911697119451944,0.103553420618696,-0.08237250071067331,-0.008605947206322465,2.378840030687226,0.2110078863152156,-0.162218427626861
5.4,0.9125269717983818,1.1905017957737296,1.0,-1.5873357276983062,1.216702629064509,0.0,-1.622270172086012,-2.116447636931075,0.0,0.0,0.0,0.9911707257616303,0.10570350317063061,-0.07959465567875099,-0.008488380175311474,2.378840030687226,0.21516156133349584,-0.1566289166819288
5.42,0.8804595848762475,1.214409699977543,1.0,-1.6192129333033907,1.17394611316833,0.0,-1.56526148422444,-2.158950577737854,0.0,0.0,0.0,0.9911719262407741,0.10777724813501544,-0.07676330229742434,-0.008347025637369552,2.378840030687226,0.21915515549645553,-0.15094456224415342
5.44,0.8477661304620372,1.2374540751241736,1.0,-1.6499387668322316,1.1303548406160495,0.0,-1.5071397874880659,-2.1999183557763087,0.0,0.0,0.0,0.9911732994146826,0.1097734346949469,-0.07388053079422667,-0.008182342711569533,2.378840030687226,0.2229875240637626,-0.1451697651165864
5.46,0.8144698558567822,1.2596185350734692,1.0,-1.679491380097959,1.0859598078090429,0.0,-1.4479464104120572,-2.2393218401306116,0.0,0.0,0.0,0.9911748294551961,0.11169090182784756,-0.07094844779165055,-0.007994852049956754,2.378840030687226,0.2266576546541927,-0.13930888355026383
5.48,0.780594437008239,1.2808873193656771,1.0,-1.707849759154236,1.040792582677652,0.0,-1.3877234435702026,-2.277133012205648,0.0,0.0,0.0,0.991176498862071,0.11352854750423377,-0.0679691746068862,-0.007785133805170289,2.378840030687226,0.23016465753794207,-0.1333662299329692
5.5,0.7461639616756748,1.3012453044282088,1.0,-1.7349937392376118,0.9948852822342331,0.0,-1.326513709645644,-2.3133249856501488,0.0,0.0,0.0,0.991178288667214,0.11528532784613867,-0.06494484566592465,-0.007553825492465771,2.378840030687226,0.23350775606032348,-0.12734606813437344
5.5200000000000005,0.7112029123017937,1.3206780143295516,1.0,-1.7609040191060688,0.9482705497357249,0.0,-1.2643607329809665,-2.347872025474758,0.0,0.0,0.0,0.9911801786525836,0.11696025625516149,-0.06187760703105284,-0.007301619756608173,2.378840030687226,0.23668627725043037,-0.12125261148560362
5.54,0.6757361486040432,1.3391716310726474,1.0,-1.7855621747635297,0.9009815314720575,0.0,-1.2013087086294099,-2.3807495663513727,0.0,0.0,0.0,0.9911821475792527,0.11855240251974,-0.05876961504008668,-0.0070292620535777305,2.378840030687226,0.23969964266312122,-0.11509002136885238
5.5600000000000005,0.6397888898976304,1.3567130044204478,1.0,-1.808950672560597,0.8530518531968405,0.0,-1.1374024709291206,-2.4119342300807958,0.0,0.0,0.0,0.991184173425065,0.12006089191084685,-0.05562303505504166,-0.006737548256465861,2.378840030687226,0.24254735949764275,-0.10886240639062383
5.58,0.6033866971628605,1.3732896612466339,1.0,-1.8310528816621785,0.8045155962171473,0.0,-1.072687461622863,-2.441403842216238,0.0,0.0,0.0,0.9911862336282964,0.12148490427487502,-0.052440040317365266,-0.006427322194342305,2.378840030687226,0.2452290120313802,-0.10257382211056543
5.6000000000000005,0.5665554548695021,1.3888898144048762,1.0,-1.8518530858731683,0.7554072731593361,0.0,-1.0072096975457814,-2.469137447830891,0.0,0.0,0.0,0.9911883053347362,0.1228236731320281,-0.04922281090631823,-0.006099473132257693,2.378840030687226,0.2477442534026688,-0.09622827129657674
5.62,0.5293213525711609,1.403502371110301,1.0,-1.8713364948137345,0.7057618034282145,0.0,-0.9410157379042859,-2.4951153264183126,0.0,0.0,0.0,0.991190365645622,0.12407648478805508,-0.045973532796620906,-0.005754933199918235,2.378840030687226,0.25009279777232957,-0.08982970467592266
5.64,0.49171086628268756,1.4171169408272306,1.0,-1.8894892544363076,0.6556144883769167,0.0,-0.8741526511692223,-2.5193190059150767,0.0,0.0,0.0,0.9911923918639103,0.12524267746669254,-0.04269439701104201,-0.005394674775936957,2.378840030687226,0.2522744128896477,-0.08338202215141055
5.66,0.45375073965390944,1.4297238426575707,1.0,-1.906298456876761,0.6050009862052126,0.0,-0.8066679816069501,-2.541731275835681,0.0,0.0,0.0,0.9911943617364353,0.12632164046968133,-0.03938759886323374,-0.005019707833939898,2.378840030687226,0.25428891308488055,-0.07688907445128645
5.68,0.4154679649530568,1.4413141122245925,1.0,-1.92175214963279,0.5539572866040757,0.0,-0.738609715472101,-2.5623361995103866,0.0,0.0,0.0,0.9911962536895934,0.12731281337073497,-0.03605533728577301,-0.00463107725618991,2.378840030687226,0.25613615270709666,-0.07035466518128786
5.7,0.3768897638733836,1.4518795080472295,1.0,-1.9358393440629726,0.5025196851645114,0.0,-0.6700262468860152,-2.5811191254172967,0.0,0.0,0.0,0.9911980470562907,0.12821568524934113,-0.032699814238070724,-0.004229860119793293,2.378840030687226,0.25781602002318776,-0.06378255324726467
5.72,0.3380435681766844,1.4614125174003318,1.0,-1.9485500232004425,0.45072475756891256,0.0,-0.6009663434252167,-2.59806669760059,0.0,0.0,0.0,0.9911997222920185,0.12902979396978598,-0.029323234188558287,-0.0038171629599819215,2.378840030687226,0.25932843159126384,-0.0571764556169152
5.74,0.29895700018740434,1.4699063616567378,1.0,-1.9598751488756503,0.39860933358320577,0.0,-0.5314791114442743,-2.6131668651675337,0.0,0.0,0.0,0.9912012611780482,0.12975472551030576,-0.025927803665325218,-0.0033941190144178564,2.378840030687226,0.2606733271193269,-0.05054005038938736
5.76,0.2596578531512726,1.4773550011073413,1.0,-1.9698066681431217,0.3462104708683635,0.0,-0.46161396115781794,-2.6264088908574954,0.0,0.0,0.0,0.9912026470098872,0.1303901133467878,-0.02251573086920079,-0.002961885451958014,2.378840030687226,0.2618506648181016,-0.04387698014183705
5.78,0.2201740714723777,1.4837531392557444,1.0,-1.978337519007659,0.2935654286298369,0.0,-0.3914205715064492,-2.6377833586768786,0.0,0.0,0.0,0.9912038647692907,0.1309356378949706,-0.01908922534309824,-0.0025216405888421074,2.378840030687226,0.26286041725516646,-0.037190855522380994
5.8,0.1805337308427801,1.4890962265844294,1.0,-1.985461635445906,0.2407116411237068,0.0,-0.32094885483160907,-2.6472821805945412,0.0,0.0,0.0,0.991204901278297,0.13139102601462826,-0.015650497691310924,-0.002074581094836176,2.378840030687226,0.2637025677160555,-0.03048525905929722
5.82,0.1407650182787435,1.4933804637897823,1.0,-1.9911739517197096,0.18768669103832464,0.0,-0.25024892138443283,-2.654898602292946,0.0,0.0,0.0,0.991205745333921,0.1317560505787662,-0.012201759342326141,-0.0016219191914750891,2.378840030687226,0.2643771070767571,-0.02376374915671864
5.84,0.10089621207784008,1.4966028044836557,1.0,-1.9954704059782076,0.13452828277045345,0.0,-0.17937104369393791,-2.6606272079709434,0.0,0.0,0.0,0.9912063878223273,0.1320305301104079,-0.008745222348637758,-0.0011648798442075788,2.378840030687226,0.26488403119101234,-0.01702986424746733
5.86,0.06095566171111508,1.4987609573595653,1.0,-1.9983479431460869,0.08127421561482011,0.0,-0.10836562081976014,-2.6644639241947825,0.0,0.0,0.0,0.991206821811491,0.13221432848911002,-0.0052830992169518535,-0.0007046979499536518,2.378840030687226,0.2652233387949582,-0.010287127074032787
5.88,0.02097176766466918,1.4998533878219629,1.0,-1.9998045170959504,0.027962356886225573,0.0,-0.03728314251496743,-2.6664060227946003,0.0,0.0,0.0,0.9912070426215435,0.13230735472890967,-0.0018176027621311464,-0.00024261552134406195,2.378840030687226,0.2653950299309763,-0.0035390490690176968
5.9,-0.019027038755056423,1.4998793190774429,1.0,-1.9998390921032572,-0.025369385006741896,0.0,0.03382584667565586,-2.6664521228043427,0.0,0.0,0.0,0.9912070478722016,0.13230956282897893,0.0016490540218300975,0.00022012113127936597,2.378840030687226,0.2653991048920281,0.003210865193371548
5.92,-0.05901231563788794,1.4988387326870942,1.0,-1.9984516435827921,-0.07868308751718392,0.0,0.10491078335624522,-2.6646021914437226,0.0,0.0,0.0,0.9912068375068711,0.13222095169783682,0.005114658080531794,0.0006822642191592602,2.378840030687226,0.2652355636872836,0.009959113503005046
5.94,-0.0989556306940948,1.4967323685796114,1.0,-1.9956431581061487,-0.13194084092545974,0.0,0.17592112123394632,-2.6608575441415314,0.0,0.0,0.0,0.9912064137932192,0.13204156515154855,0.008576996414352106,0.0011425672948546246,2.378840030687226,0.2649044060294373,0.016702191504803565
5.96,-0.13882858147169003,1.493561724525156,1.0,-1.9914156327002082,-0.18510477529558672,0.0,0.2468063670607823,-2.6552208436002775,0.0,0.0,0.0,0.9912057813002119,0.13177149198592283,0.012033856196843969,0.001599788071576933,2.378840030687226,0.26440563184371924,0.023436588203054498
5.98,-0.17860281555254864,1.4893290550703369,1.0,-1.9857720734271158,-0.23813708740339817,0.0,0.3175161165378642,-2.647696097902821,0.0,0.0,0.0,0.991204946851813,0.13141086612229716,0.015483024903103998,0.0020526912412738136,2.378840030687226,0.2637392422982276,0.03015878150718576
6.0,-0.2182500507129203,1.4840373699350726,1.0,-1.9787164932467636,-0.2910000676172271,0.0,0.38800009015630277,-2.6382886576623514,0.0,0.0,0.0,0.9912039194577382,0.13095986682608132,0.018922290454844524,0.002500051290522086,2.378840030687226,0.26290524135479976,0.0368652338472113
6.0200000000000005,-0.25774209503405193,1.4776904318724737,1.0,-1.9702539091632982,-0.34365612671206924,0.0,0.4582081689494256,-2.627005212217731,0.0,0.0,0.0,0.991202710221863,0.1304187189968047,0.022349441388878944,0.00294065531315924,2.378840030687226,0.26190363783915976,0.043552387887255906
6.04,-0.2970508669485744,1.4702927539932653,1.0,-1.960390338657687,-0.3960678225980992,0.0,0.5280904301307989,-2.613853784876916,0.0,0.0,0.0,0.991201332229075,0.12978769352798572,0.025762267055678526,0.003373305818394308,2.378840030687226,0.26073444802852025,0.05021666236582156
6.0600000000000005,-0.3361484152084495,1.4618495965566525,1.0,-1.94913279540887,-0.44819788694459933,0.0,0.597597182592799,-2.5988437272118263,0.0,0.0,0.0,0.9911998004115504,0.12906710773470484,0.029158557854608153,0.003796823532900985,2.378840030687226,0.2593976987541221,0.05685444809177831
6.08,-0.37500693876021574,1.4523669632299172,1.0,-1.9364892843065564,-0.5000092516802876,0.0,0.6666790022403835,-2.5819857124087418,0.0,0.0,0.0,0.9911981313956318,0.1282573258463265,0.032536105512363946,0.00421005019510483,2.378840030687226,0.2578934310153621,0.06346210412540954
6.1000000000000005,-0.4135988065134753,1.4418515968193915,1.0,-1.9224687957591886,-0.5514650753513004,0.0,0.7352867671350671,-2.563291727678918,0.0,0.0,0.0,0.991196343330654,0.12735875956136097,0.03589270341105408,0.004611851339539042,2.378840030687226,0.2562217041011302,0.07003595417425323
6.12,-0.4518965769884874,1.4303109744758613,1.0,-1.9070812993011486,-0.6025287693179832,0.0,0.8033716924239775,-2.5427750657348644,0.0,0.0,0.0,0.9911944557012503,0.12637186866100744,0.0392261469722369,0.005001119068756151,2.378840030687226,0.25438260021275794,0.07657228323385645
6.140000000000001,-0.48987301782896303,1.4177533023777953,1.0,-1.890337736503727,-0.6531640237719507,0.0,0.8708853650292676,-2.5204503153383024,0.0,0.0,0.0,0.9911924891248327,0.12529716167744823,0.042534234103106146,0.005376774809854443,2.378840030687226,0.2523762295815078,0.08306733450399673
6.16,-0.5275011251661439,1.4041875098961865,1.0,-1.8722500131949151,-0.7033348335548585,0.0,0.9377797780731446,-2.4963333509265535,0.0,0.0,0.0,0.9911904651360981,0.12413519661249665,0.04581476571084102,0.005737772052205748,2.378840030687226,0.2502027360718164,0.08951730661125867
6.18,-0.5647541428204225,1.3896232432451503,1.0,-1.8528309909935337,-0.7530055237605633,0.0,1.0040073650140844,-2.4704413213247114,0.0,0.0,0.0,0.9911884059605589,0.12288658170171694,0.049065546290953416,0.0060830990624627474,2.378840030687226,0.24786230325950248,0.09591835116919478
6.2,-0.601605581326827,1.374070858622804,1.0,-1.832094478163739,-0.802140775102436,0.0,1.0695210334699146,-2.4427926375516518,0.0,0.0,0.0,0.9911863342792342,0.12155197621865191,0.05228438459523766,0.006411781572380708,2.378840030687226,0.24535516097184876,0.10226657070752743
6.22,-0.6380292367708522,1.3575414148472982,1.0,-1.8100552197963975,-0.850705649027803,0.0,1.1342741987037372,-2.4134069597285297,0.0,0.0,0.0,0.9911842729867506,0.12013209131329834,0.05546909438467331,0.006722885434416708,2.378840030687226,0.2426815922738503,0.10855801700196621
6.24,-0.6739992094212582,1.340046665493228,1.0,-1.786728887324304,-0.8986656125616777,0.0,1.1982208167489035,-2.3823051830990716,0.0,0.0,0.0,0.9911822449452159,0.11862769087847941,0.058617495272336353,0.0070155192394732455,2.378840030687226,0.23984194088198052,0.11478868983621471
6.26,-0.7094899221465603,1.321599050534037,1.0,-1.762132067378716,-0.9459865628620803,0.0,1.2613154171494403,-2.349509423171621,0.0,0.0,0.0,0.9911802727363074,0.11703959243726891,0.06172741366103421,0.0072888368905382386,2.378840030687226,0.2368366189835539,0.12095453622752528
6.28,-0.7444761386021431,1.3022116874963312,1.0,-1.7362822499951083,-0.9926348514695241,0.0,1.3235131352926988,-2.3150429999934774,0.0,0.0,0.0,0.9911783784140902,0.11536866804412965,0.06479668378000422,0.007542040125347309,2.378840030687226,0.23366611543615262,0.12705145014676877
6.3,-0.7789329811750262,1.2818983621324223,1.0,-1.7091978161765629,-1.0385773082333682,0.0,1.3847697443111575,-2.2789304215687505,0.0,0.0,0.0,0.9911765832611295,0.11361584519194945,0.06782314882458221,0.007774380980562533,2.378840030687226,0.23033100431765452,0.13307527276332243
6.32,-0.8128359486735807,1.2606735186176952,1.0,-1.6808980248235936,-1.0837812648981076,0.0,1.44504168653081,-2.241197366431458,0.0,0.0,0.0,0.9911749075504821,0.11178210771667986,0.07080466220228034,0.007985164189333883,2.378840030687226,0.22683195379313842,0.13902179324415442
6.34,-0.846160933749551,1.2385522492798144,1.0,-1.6514029990397527,-1.1282145783327346,0.0,1.5042861044436462,-2.2018706653863367,0.0,0.0,0.0,0.9911733703161579,0.10986849669083647,0.07373908888817449,0.008173749503491501,2.378840030687226,0.22316973526041167,0.14488675013520624
6.36,-0.8788842400400505,1.2155502838670322,1.0,-1.6207337118227096,-1.171845653386734,0.0,1.562460871182312,-2.1609782824302792,0.0,0.0,0.0,0.9911719891346149,0.10787611129667901,0.0766243068919319,0.00833955393102045,2.378840030687226,0.2193452327310786,0.15066583335158357
6.38,-0.9109825990173068,1.1916839783632542,1.0,-1.5889119711510056,-1.214643465356409,0.0,1.619524620475212,-2.118549294868007,0.0,0.0,0.0,0.9911707799198042,0.10580610966949215,0.07945820883816751,0.008482053878901462,2.378840030687226,0.2153594523990464,0.15635468680103948
6.4,-0.942433186534197,1.1669703033578016,1.0,-1.5559604044770687,-1.256577582045596,0.0,1.6754367760607947,-2.0746138726360916,0.0,0.0,0.0,0.9911697567342007,0.10365970970101544,0.08223870366113302,0.008600787190873668,2.378840030687226,0.21121353234314344,0.1619489116628301
6.42,-0.9732136390537762,1.1414268319781633,1.0,-1.521902442637551,-1.297618185405035,0.0,1.7301575805400466,-2.0292032568500677,0.0,0.0,0.0,0.9911689316181466,0.1014381897927487,0.08496371841399564,0.008695355069197122,2.378840030687226,0.20690875230520922,0.16744407034112996
6.44,-1.003302069551312,1.1150717273942756,1.0,-1.4867623031923676,-1.3377360927350828,0.0,1.783648123646777,-1.9823497375898234,0.0,0.0,0.0,0.9911683144396984,0.09914288954857747,0.08763120019217478,0.00876542386907651,2.378840030687226,0.20244654347963315,0.17283569110887287
6.46,-1.0326770830774537,1.0879237299032694,1.0,-1.450564973204359,-1.376902777436605,0.0,1.8358703699154733,-1.9340866309391453,0.0,0.0,0.0,0.9911679127670058,0.09677521039595181,0.09023911816934883,0.008810726754061842,2.378840030687226,0.1978284982450048,0.17811927345402068
6.48,-1.0613177919715249,1.060002143603817,1.0,-1.413336191471756,-1.4150903892953666,0.0,1.8867871857271554,-1.8844482552956745,0.0,0.0,0.0,0.991167731765044,0.09433661612469126,0.09278546574386039,0.008831065200480274,2.378840030687226,0.1930563797633305,0.1832902941359562
6.5,-1.0892038307140877,1.0313268226695926,1.0,-1.3751024302261234,-1.4522717742854503,0.0,1.9363623657139337,-1.8334699069681646,0.0,0.0,0.0,0.9911677741183078,0.09182863333241435,0.09526826279230377,0.008826310338784617,2.378840030687226,0.18813213136732554,0.1883442139548377
6.5200000000000005,-1.1163153704082385,1.001918157231576,1.0,-1.3358908763087682,-1.4884204938776513,0.0,1.984560658503535,-1.7811878350783577,0.0,0.0,0.0,0.9911680399808105,0.08925285176558835,0.09768555802610927,0.008796404119640408,2.378840030687226,0.18305788565168382,0.19327648523143637
6.54,-1.142633132879309,0.9717970588792784,1.0,-1.295729411839038,-1.5235108438390785,0.0,2.031347791785438,-1.7276392157853837,0.0,0.0,0.0,0.9911685269544589,0.08661092454528804,0.10003543144592751,0.008741360292624237,2.378840030687226,0.17783597318011174,0.1980825599891498
6.5600000000000005,-1.1681384043829917,0.9409849457911418,1.0,-1.254646594388189,-1.5575178725106555,0.0,2.076690496680874,-1.6728621258509186,0.0,0.0,0.0,0.9911692300965677,0.08390456826693045,0.10231599688759549,0.008661265185580774,2.378840030687226,0.17246893071638267,0.20275789882364315
6.58,-1.1928130489120916,0.9095037275047531,1.0,-1.2126716366730041,-1.5904173985494554,0.0,2.1205565313992736,-1.6168955155640055,0.0,0.0,0.0,0.9911701419569461,0.08113556296354683,0.10452540465241342,0.0085562782729935,2.378840030687226,0.1669595088849144,0.20729798043887682
6.6000000000000005,-1.216639521092484,0.8773757893376426,1.0,-1.1698343857835234,-1.622186028123312,0.0,2.162914704164416,-1.5597791810446977,0.0,0.0,0.0,0.9911712526446547,0.07830575192253757,0.10666184421342269,0.008426632522171212,2.378840030687226,0.1613106791644563,0.2116983118212754
6.62,-1.239600878659083,0.8446239764697834,1.0,-1.126165301959711,-1.652801171545444,0.0,2.203734895393925,-1.5015537359462814,0.0,0.0,0.0,0.9911725499241577,0.07541704134636606,0.10872354698832702,0.008272634506645334,2.378840030687226,0.15552564011760692,0.21595443901645606
6.640000000000001,-1.2616807945029669,0.8112715776990848,1.0,-1.081695436932113,-1.6822410593372892,0.0,2.2429880791163854,-1.4422605825761505,0.0,0.0,0.0,0.9911740193402375,0.07247139984826148,0.11070878916868276,0.008094664276915818,2.378840030687226,0.1496078227591309,0.2200619584654262
6.66,-1.2828635682810674,0.777342308881465,1.0,-1.0364564118419535,-1.71048475770809,0.0,2.2806463436107864,-1.381941882455938,0.0,0.0,0.0,0.9911756443706531,0.06947085777473955,0.11261589459398864,0.00789317497957851,2.378840030687226,0.14356089496758168,0.22401652884950352
6.68,-1.3031341375802086,0.7428602960672253,1.0,-0.9904803947563003,-1.7375121834402782,0.0,2.316682911253704,-1.3206405263417338,0.0,0.0,0.0,0.9911774066051545,0.06641750634759308,0.11444323765836878,0.00766869221691386,2.378840030687226,0.13738876484761395,0.22781388338558006
6.7,-1.3224780886275123,0.7078500583457784,1.0,-0.9438000777943713,-1.7633041181700162,0.0,2.3510721575600213,-1.2584001037258283,0.0,0.0,0.0,0.9911792859490908,0.0633134966189796,0.11618924623665008,0.007421813140215052,2.378840030687226,0.1310955829547483,0.2314498425057887
6.72,-1.3408816665395873,0.6723364904108797,1.0,-0.896448653881173,-1.787842222052783,0.0,2.3837896294037106,-1.195264871841564,0.0,0.0,0.0,0.9911812608494885,0.060161038234298275,0.11785240461583187,0.007153205271476264,2.378840030687226,0.1246857433002129,0.23492032684832953
6.74,-1.3583317851032057,0.6363448448587748,1.0,-0.8484597931450332,-1.8111090468042743,0.0,2.414812062405699,-1.1312797241933774,0.0,0.0,0.0,0.9911833085411403,0.05696239799873706,0.11943125641722069,0.006863605049544247,2.378840030687226,0.11816388306095275,0.2382213704792795
6.76,-1.3748160360804937,0.5999007142318789,1.0,-0.7998676189758385,-1.833088048107325,0.0,2.4441173974764334,-1.0664901586344513,0.0,0.0,0.0,0.9911854053099175,0.053719898244649934,0.12092440749388399,0.006553816098447183,2.378840030687226,0.11153488092892823,0.24134913425874926
6.78,-1.3903226980320538,0.5630300128206942,1.0,-0.7507066837609255,-1.8537635973760715,0.0,2.4716847965014286,-1.0009422450145673,0.0,0.0,0.0,0.9911875267702354,0.050435914998284856,0.12233052878757712,0.006224707217341422,2.378840030687226,0.10480385404439183,0.24429991925899608
6.8,-1.4048407446517082,0.5257589582369796,1.0,-0.7010119443159728,-1.8731209928689443,0.0,2.497494657158592,-0.934682592421297,0.0,0.0,0.0,0.9911896481533472,0.04711287594583929,0.12364835912892012,0.005877210093346481,2.378840030687226,0.09797615346993004,0.2470701801370856
6.82,-1.4183598526069692,0.48811405277121056,1.0,-0.6508187370282807,-1.8911464701426257,0.0,2.521528626856834,-0.8677583160377076,0.0,0.0,0.0,0.9911917446029253,0.04375325820031603,0.12487670796437149,0.005512316740450063,2.378840030687226,0.09105735817549568,0.24965653836064328
6.84,-1.4308704088796378,0.4501220645476275,1.0,-0.60016275273017,-1.907827211839517,0.0,2.5437696157860223,-0.8002170036402265,0.0,0.0,0.0,0.9911937914742242,0.04035958587221761,0.12601445799346017,0.005131076669642631,2.378840030687226,0.08405326751938583,0.25205579518221244
6.86,-1.4423635176013245,0.41181000849024285,1.0,-0.5490800113203238,-1.923151356801766,0.0,2.5642018090690213,-0.7321066817604317,0.0,0.0,0.0,0.9911957646330066,0.03693442744869823,0.1270605676998151,0.004734593797459169,2.378840030687226,0.07696989222588341,0.25426494425591284
6.88,-1.452831006379022,0.37320512711338516,1.0,-0.4976068361511802,-1.9371080085053627,0.0,2.5828106780071503,-0.6634757815349068,0.0,0.0,0.0,0.9911976407503449,0.033480392987398994,0.12801407375976975,0.004324023102143851,2.378840030687226,0.06981344387691871,0.25628118378951226
6.9,-1.4622654321062454,0.33433487115037147,1.0,-0.4457798282004953,-1.9496872428083272,0.0,2.5995829904111027,-0.594373104267327,0.0,0.0,0.0,0.9911993975894126,0.030000131132775283,0.12887409331273195,0.0039005670386827655,2.378840030687226,0.06259032295230019,0.2581019281258208
6.92,-1.4706600862555885,0.29522688003416087,1.0,-0.3936358400455478,-1.9608801150074515,0.0,2.614506820009935,-0.5248477867273971,0.0,0.0,0.0,0.9912010142804305,0.026496325964304564,0.1296398260780836,0.0034654717259488496,2.378840030687226,0.05530710547061392,0.25972481864949315
6.94,-1.4780089996489536,0.2559089622438008,1.0,-0.34121194965840107,-1.9706786661986049,0.0,2.627571554931473,-0.4549492662112014,0.0,0.0,0.0,0.9912024715800467,0.02297169368746847,0.13031055630412897,0.003020022921139701,2.378840030687226,0.04797052830038305,0.26114773391897805
6.96,-1.484306946702047,0.2164090755306859,1.0,-0.28854543404091454,-1.9790759289360629,0.0,2.6387679052480837,-0.38472724538788605,0.0,0.0,0.0,0.9912037521116017,0.019428979179863037,0.13088565453551773,0.002565541798541337,2.378840030687226,0.04058747322829062,0.2623687989284029
6.98,-1.4895494491401318,0.1767553070386577,1.0,-0.23567374271821026,-1.9860659321868424,0.0,2.6480879095824563,-0.3142316569576137,0.0,0.0,0.0,0.9912048405829612,0.01587095240614527,0.13136457918664496,0.0021033805513887066,2.378840030687226,0.03316494988778011,0.26338639341067993
7.0,-1.4937327791823862,0.1369758533321266,1.0,-0.18263447110950215,-1.991643705576515,0.0,2.6555249407686867,-0.24351262814600286,0.0,0.0,0.0,0.9912057239788837,0.012300404716783463,0.13174687790974696,0.0016349178371946832,2.378840030687226,0.02571007766688925,0.26419915910095315
7.0200000000000005,-1.496853962192618,0.09709900034634883,1.0,-0.12946533379513178,-1.9958052829234907,0.0,2.6610737105646542,-0.1726204450601757,0.0,0.0,0.0,0.9912063917252235,0.008720145046693693,0.1320321887477712,0.001161554088355971,2.378840030687226,0.018230066728351528,0.2648060058886019
7.04,-1.4989107787944316,0.05715310327419389,1.0,-0.07620413769892519,-1.9985477050592422,0.0,2.6647302734123226,-0.10160551693190024,0.0,0.0,0.0,0.9912068358226537,0.005132996030839061,0.1322202410635748,0.0006847067110999461,2.378840030687226,0.010732198287596643,0.2652061167962707
7.0600000000000005,-1.4999017664493597,0.01716656640363616,1.0,-0.02288875520484821,-1.9998690219324795,0.0,2.666492029243306,-0.030518340273130946,0.0,0.0,0.0,0.9912070509480138,0.0015417900546766958,0.13231085623859346,0.0002058051968852676,2.378840030687226,0.0032238043049132485,0.26539895173562855
7.08,-1.4998262204968293,-0.022832177079647614,1.0,0.030442902772863486,-1.9997682939957724,0.0,2.666357725327696,0.040590537030484646,0.0,0.0,0.0,0.9912070345218387,-0.0020506347420025774,0.13230394813578822,-0.00027371382879887835,2.378840030687226,-0.004287753243429341,0.2653842500016306
7.1000000000000005,-1.4986841946552232,-0.06281468531024512,1.0,0.08375291374699348,-1.998245592873631,0.0,2.664327457164841,0.11167055166265796,0.0,0.0,0.0,0.9912067867411067,-0.005641438488836434,0.1321995233234187,-0.0007524115946931651,2.378840030687226,-0.011795103344149294,0.26516203147977047
7.12,-1.496476500983683,-0.10275252796711781,1.0,0.13700337062282375,-1.9953020013115772,0.0,2.6604026684154363,0.18267116083043167,0.0,0.0,0.0,0.9912063105767384,-0.009227783616964875,0.13199768105796755,-0.0012288521831901392,2.378840030687226,-0.019290887001359946,0.26473259655391934
7.140000000000001,-1.493204709304678,-0.14261730648954143,1.0,0.1901564086527219,-1.9909396124062375,0.0,2.654586149874983,0.25354187820362917,0.0,0.0,0.0,0.9912056117358813,-0.012806838880051801,0.13169861302634453,-0.0017016075149139812,2.378840030687226,-0.026767778190673622,0.2640965247157081
7.16,-1.4888711460877553,-0.1823806742704227,1.0,0.2431742323605636,-1.985161528117007,0.0,2.6468820374893425,0.3242323098140848,0.0,0.0,0.0,0.9912046985895211,-0.016375783344988702,0.13130260284929782,-0.002169262292594957,2.378840030687226,-0.03421850453871193,0.2632546718897171
7.18,-1.4834788927952576,-0.22201435681270013,1.0,0.2960191424169335,-1.9779718570603433,0.0,2.637295809413791,0.39469218988924465,0.0,0.0,0.0,0.9912035820664491,-0.019931810333332783,0.1308100253497357,-0.002630418878767325,2.378840030687226,-0.04163586755780311,0.26220816650182877
7.2,-1.4770317836911904,-0.2614901718344695,1.0,0.3486535624459593,-1.969375711588254,0.0,2.6258342821176717,0.4648714165946124,0.0,0.0,0.0,0.9912022755150959,-0.02347213129501762,0.13022134559138876,-0.0030837020824498597,2.378840030687226,-0.04901276227214089,0.2609584043307127
7.22,-1.4695344031147992,-0.30078004930851143,1.0,0.40104006574468193,-1.9593792041530658,0.0,2.6125056055374207,0.5347200876595759,0.0,0.0,0.0,0.9912007945351898,-0.02699397959654886,0.12953711769490453,-0.003527763830830808,2.378840030687226,-0.056342196080507695,0.2595070421943966
7.24,-1.4609920822207836,-0.3398560514220383,1.0,0.45314140189605107,-1.9479894429610447,0.0,2.597319257281393,0.6041885358614014,0.0,0.0,0.0,0.9911991567816082,-0.030494614206751047,0.12875798344003317,-0.003961287703060632,2.378840030687226,-0.0636173067116291,0.25785599053495734
7.26,-1.451410895188482,-0.3786903924423871,1.0,0.5049205232565162,-1.9352145269179761,0.0,2.5802860358906345,0.6732273643420215,0.0,0.0,0.0,0.9911973817431773,-0.03397132326412096,0.12788467066402856,-0.004382993304535395,2.378840030687226,-0.07083137914101591,0.25600740497449204
7.28,-1.4407976549027102,-0.4172554584746029,1.0,0.5563406112994705,-1.9210635398702802,0.0,2.5614180531603736,0.7417874817326273,0.0,0.0,0.0,0.9911954904994903,-0.037421427511000166,0.1269179914677246,-0.004791640461517653,2.378840030687226,-0.07797786135258662,0.2539636769244258
7.3,-1.4291599081093302,-0.45552382709681694,1.0,0.607365102795756,-1.9055465441457737,0.0,2.540728725527698,0.8098201370610079,0.0,0.0,0.0,0.9911935054591025,-0.040842283581038565,0.12585884024194913,-0.005186033217561685,2.378840030687226,-0.08505037884402858,0.25172742333788234
7.32,-1.416505930048992,-0.49346828685949073,1.0,0.6579577158126543,-1.8886745733986559,0.0,2.518232764531541,0.8772769544168724,0.0,0.0,0.0,0.9911914500826783,-0.04423128712780214,0.12470819152798415,-0.005565023614966717,2.378840030687226,-0.09204274779151148,0.2493014757011287
7.34,-1.4028447185728703,-0.5310618566346152,1.0,0.7080824755128203,-1.870459624763827,0.0,2.493946166351769,0.9441099673504271,0.0,0.0,0.0,0.9911893485948293,-0.04758587578383259,0.12346709772667414,-0.005927515246346226,2.378840030687226,-0.09894898680661077,0.24668886836495885
7.36,-1.3881859877445666,-0.5682778048011747,1.0,0.7577037397348996,-1.8509146503260887,0.0,2.467886200434785,1.010271652979866,0.0,0.0,0.0,0.9911872256884918,-0.05090353194100303,0.12213668667150641,-0.0062724665633505945,2.378840030687226,-0.10576332723585724,0.24389282632032971
7.38,-1.3725401609327457,-0.6050896682531544,1.0,0.8067862243375392,-1.8300535479103277,0.0,2.44007139721377,1.0757149657833855,0.0,0.0,0.0,0.9911851062257329,-0.05418178534457228,0.12071815908154472,-0.006598893931582743,2.378840030687226,-0.11248022197080085,0.24091675252453504
7.4,-1.3559183633993979,-0.6414712712166452,1.0,0.8552950282888602,-1.807891151199197,0.0,2.4105215349322626,1.1403933710518135,0.0,0.0,0.0,0.9911830149388631,-0.05741821549494891,0.1192127859104805,-0.006905874422780925,2.378840030687226,-0.11909435275365063,0.23776421488480137
7.42,-1.3383324143890118,-0.6773967438626186,1.0,0.9031956584834915,-1.7844432191853492,0.0,2.3792576255804656,1.2042608779779886,0.0,0.0,0.0,0.9911809761356662,-0.060610453852765235,0.11762190560828481,-0.007192548337377967,2.378840030687226,-0.12560063598004975,0.2344389330054335
7.44,-1.3197948187242736,-0.7128405407021697,1.0,0.9504540542695596,-1.7597264249656983,0.0,2.3463018999542644,1.2672720723594129,0.0,0.0,0.0,0.9911790134124292,-0.06375618584445228,0.11594692131199566,-0.0074581214525611976,2.378840030687226,-0.13199422701619767,0.23094476480262927
7.46,-1.3003187579142816,-0.7477774587511044,1.0,0.9970366116681392,-1.733758343885709,0.0,2.311677791847612,1.3293821488908522,0.0,0.0,0.0,0.9911771493782838,-0.06685315266705052,0.11418929798207222,-0.00770186699292571,2.378840030687226,-0.1382705230620614,0.22728569308791147
7.48,-1.279918080781576,-0.7821826554510185,1.0,1.0429102072680247,-1.7065574410421014,0.0,2.2754099213894685,1.390546943024033,0.0,0.0,0.0,0.9911754053941539,-0.06989915289250041,0.11235055950049068,-0.007923127322716234,2.378840030687226,-0.14442516460571103,0.22346581221692485
7.5,-1.2586072936146786,-0.8160316663340547,1.0,1.0880422217787395,-1.6781430581529049,0.0,2.2375240775372065,1.4507229623716527,0.0,0.0,0.0,0.9911738013293397,-0.07289204387307899,0.11043228574636846,-0.008121315360467255,2.378840030687226,-0.1504540355256583,0.2194893148952246
7.5200000000000005,-1.236401549853117,-0.8493004224188343,1.0,1.1324005632251124,-1.6485353998041559,0.0,2.198047199738874,1.5098674176334832,0.0,0.0,0.0,0.9911723553384789,-0.07582974295101738,0.10843610966437826,-0.008295915718563545,2.378840030687226,-0.15635326190846677,0.21536047922680734
7.54,-1.2133166393122858,-0.8819652673251597,1.0,1.1759536897668796,-1.6177555190830477,0.0,2.157007358777397,1.5679382530225061,0.0,0.0,0.0,0.9911710836613034,-0.07871022847658993,0.10636371434058449,-0.008446485571835896,2.378840030687226,-0.1621192096576909,0.21108365608460877
7.5600000000000005,-1.1893689769557936,-0.9140029740953413,1.0,1.2186706321271217,-1.5858253026077247,0.0,2.1144337368102994,1.6248941761694955,0.0,0.0,0.0,0.991170000447258,-0.08153154064013933,0.10421683009959455,-0.008572655260769998,2.378840030687226,-0.16774848097744338,0.20666325687519582
7.58,-1.1645755912233016,-0.94539076171015,1.0,1.2605210156135334,-1.552767454964402,0.0,2.0703566066192023,1.680694687484711,0.0,0.0,0.0,0.9911691176066977,-0.08429178212455644,0.1019972316361025,-0.008674128636229185,2.378840030687226,-0.17323790981954074,0.20210374176253731
7.6000000000000005,-1.1389541119221165,-0.9761063112877117,1.0,1.301475081716949,-1.518605482562822,0.0,2.0248073100837622,1.735300108955932,0.0,0.0,0.0,0.9911684446899931,-0.08698911858569074,0.09970673519300026,-0.00875068315376882,2.378840030687226,-0.17858455638734158,0.19740960840814736
7.62,-1.1125227576911927,-1.0061277819537553,1.0,1.3415037092716737,-1.4833636769215903,0.0,1.9778182358954537,1.7886716123622315,0.0,0.0,0.0,0.9911679887955124,-0.0896217789689902,0.09734719579728997,-0.008802169726645267,2.378840030687226,-0.18378570079206202,0.19258538127726887
7.640000000000001,-1.085300323046417,-1.035433826371991,1.0,1.3805784351626549,-1.4470670973952229,0.0,1.9294227965269637,1.8407712468835398,0.0,0.0,0.0,0.99116775450706,-0.09218805567139932,0.09492050456402679,-0.008828512347496353,2.378840030687226,-0.18883883595871684,0.187635601553108
7.66,-1.0573061650164146,-1.0640036059235336,1.0,1.4186714745647113,-1.4097415533552196,0.0,1.879655404473626,1.8915619660862817,0.0,0.0,0.0,0.9911677438609922,-0.09468630455813555,0.09242858607750333,-0.008829707489391148,2.378840030687226,-0.19374165987890568,0.1825648176936503
7.68,-1.0285601893783616,-1.0918168055246031,1.0,1.4557557406994708,-1.3714135858378154,0.0,1.8285514477837537,1.941007654265961,0.0,0.0,0.0,0.9911679563428645,-0.09711494484446015,0.0898733958578394,-0.008805823297519118,2.378840030687226,-0.19849206730664398,0.17737757665829101
7.7,-0.9990828365036074,-1.1188536480719478,1.0,1.4918048640959305,-1.3321104486714765,0.0,1.776147264895302,1.9890731521279073,0.0,0.0,0.0,0.9911683889131306,-0.09947245885293084,0.08725691792009634,-0.008756998583215573,2.378840030687226,-0.20308814099139894,0.1720784158245512
7.72,-0.9688950668231655,-1.1450949085057247,1.0,1.5267932113409661,-1.291860089097554,0.0,1.7224801187967387,2.035724281787955,0.0,0.0,0.0,0.9911690360610826,-0.10175739165689907,0.08458116243199128,-0.008683441632308546,2.378840030687226,-0.207528142539612,0.16667185560851894
7.74,-0.9380183459233955,-1.1705219274798473,1.0,1.5606959033064631,-1.2506911278978607,0.0,1.667588170530481,2.080927871075284,0.0,0.0,0.0,0.9911698898859227,-0.10396835062118441,0.08184816347526017,-0.008585428839929016,2.378840030687226,-0.2118105029923779,0.16116239279646383
7.76,-0.9064746292824943,-1.1951166246300668,1.0,1.5934888328400891,-1.2086328390433259,0.0,1.6115104520577677,2.1246517771201185,0.0,0.0,0.0,0.9911709402035827,-0.10610400485093253,0.07905997691471787,-0.008463303183960236,2.378840030687226,-0.21593381320274596,0.1555544945893279
7.78,-0.874286346658629,-1.2188615114303625,1.0,1.62514868190715,-1.165715128878172,0.0,1.5542868385042292,2.166864909209533,0.0,0.0,0.0,0.9911721746776543,-0.10816308455965569,0.07621867837809324,-0.008317472549222842,2.378840030687226,-0.21989681409145811,0.1498525933565258
7.8,-0.8414763861408454,-1.241739703628479,1.0,1.6556529381713054,-1.1219685148544605,0.0,1.4959580198059472,2.207537250895074,0.0,0.0,0.0,0.9911735789725732,-0.11014438036735959,0.07332636134878683,-0.00814840791431015,2.378840030687226,-0.22369838685493565,0.14406108209073487
7.82,-0.8080680778740423,-1.2637349332518077,1.0,1.6849799110024102,-1.0774241038320564,0.0,1.4365654717760752,2.246639881336547,0.0,0.0,0.0,0.991175136927005,-0.11204674253950386,0.07038513537280855,-0.007956641412713324,2.378840030687226,-0.22733754319411592,0.13818431055107605
7.84,-0.7740851774696439,-1.2848315601750255,1.0,1.713108746900034,-1.0321135699595252,0.0,1.3761514266127002,2.2841449958667117,0.0,0.0,0.0,0.9911768307452254,-0.1138690801773081,0.06739712438031926,-0.007742764279520614,2.378840030687226,-0.23081341562738705,0.13222658207833304
7.86,-0.739551849113713,-1.3050145832413091,1.0,1.7400194443217456,-0.9860691321516173,0.0,1.314758842868823,2.3200259257623275,0.0,0.0,0.0,0.991178641204144,-0.11561036036963969,0.06436446512140447,-0.007507424694548154,2.378840030687226,-0.23412524794551587,0.12619215106257986
7.88,-0.7044926483845522,-1.3242696509291905,1.0,1.7656928679055872,-0.9393235311794028,0.0,1.2524313749058704,2.3542571572074493,0.0,0.0,0.0,0.9911805478735257,-0.11726960731638104,0.06128930571497962,-0.007251325532274667,2.378840030687226,-0.23727238586113625,0.12008522104076946
7.9,-0.6689325047919852,-1.3425830715574811,1.0,1.7901107620766417,-0.8919100063893135,0.0,1.189213341852418,2.386814349435522,0.0,0.0,0.0,0.9911825293468867,-0.11884590143280459,0.05817380430904051,-0.006975222028418018,2.378840030687226,-0.24025426790018767,0.1139099433994859
7.92,-0.632896704050772,-1.3599418230209959,1.0,1.8132557640279945,-0.843862272067696,0.0,1.1251496960902614,2.417674352037326,0.0,0.0,0.0,0.991184563480493,-0.12033837844407134,0.05502012784985062,-0.006679919372419503,2.378840030687226,-0.24307041657767486,0.10767041665610844
7.94,-0.5964108701007034,-1.3763335620501747,1.0,1.8351114160668995,-0.7952144934676044,0.0,1.0602859912901392,2.4468152214225327,0.0,0.0,0.0,0.9911866276378727,-0.12174622847853879,0.05183045095707615,-0.006366270234500473,2.378840030687226,-0.24572042989535836,0.10137068629007318
7.96,-0.5595009468862279,-1.3917466329879926,1.0,1.8556621773173236,-0.7460012625149705,0.0,0.9946683500199606,2.474216236423098,0.0,0.0,0.0,0.9911886989372545,-0.1230686951680995,0.04860695490137033,-0.006035172235337387,2.378840030687226,-0.24820397319446658,0.09501474509471519
7.98,-0.5221931799085092,-1.4061700760779399,1.0,1.8748934347705866,-0.6962575732113456,0.0,0.9283434309484608,2.4998579130274488,0.0,0.0,0.0,0.9911907544993788,-0.12430507476330499,0.04535182668042827,-0.005687565365770993,2.378840030687226,-0.25052077139232254,0.08860653401926966
8.0,-0.48451409756306985,-1.4195936352571619,1.0,1.892791513676216,-0.6460187967507598,0.0,0.8613583956676797,2.5237220182349542,0.0,0.0,0.0,0.9911927716931719,-0.12545471527053986,0.042067258189121576,-0.005324429363335004,2.378840030687226,-0.2526706016278831,0.08214994347000215
8.02,-0.44649049227626364,-1.432007765449231,1.0,1.9093436872656413,-0.5953206563683515,0.0,0.793760875157802,2.545791583020855,0.0,0.0,0.0,0.991194728376853,-0.12651701561802317,0.03875544547894295,-0.00494678105176389,2.378840030687226,-0.2546532863376298,0.07564881503905663
8.040000000000001,-0.40814940145401574,-1.4434036393513523,1.0,1.9245381858018031,-0.5441992019386876,0.0,0.7255989359182502,2.566050914402404,0.0,0.0,0.0,0.9911966031321252,-0.12749142485691783,0.03541858810166382,-0.004555671649027511,2.378840030687226,-0.25646868678002244,0.06910694362945002
8.06,-0.3695180882563802,-1.45377315371118,1.0,1.93836420494824,-0.4926907843418403,0.0,0.6569210457891204,2.584485606597653,0.0,0.0,0.0,0.9911983754892166,-0.1283774414033359,0.03205888853181747,-0.004152184048847091,2.378840030687226,-0.25811669702383017,0.06252807994464038
8.08,-0.33062402221151926,-1.463108935088798,1.0,1.9508119134517308,-0.440832029615359,0.0,0.5877760394871453,2.6010825512689744,0.0,0.0,0.0,0.9912000261406545,-0.1291746123265394,0.028678551662360843,-0.003737430080077912,2.378840030687226,-0.25959723841309257,0.05591593331123379
8.1,-0.2914948596830048,-1.471404345099737,1.0,1.9618724601329824,-0.3886598129106731,0.0,0.5182130838808974,2.6158299468439763,0.0,0.0,0.0,0.9912015371417944,-0.1298825326881439,0.025279784367665894,-0.0033125477478077128,2.378840030687226,-0.2609102545191896,0.049274174803660475
8.120000000000001,-0.252158424204211,-1.4786534851353272,1.0,1.9715379801804362,-0.33621123227228134,0.0,0.4482816430297084,2.628717306907248,0.0,0.0,0.0,0.9912028920962734,-0.13050084493666111,0.021864795127784085,-0.0028786984595134462,2.378840030687226,-0.26205570658855676,0.042606440639953114
8.14,-0.21264268669389394,-1.4848512005570127,1.0,1.9798016007426837,-0.28352358225852525,0.0,0.378031443011367,2.6397354676569114,0.0,0.0,0.0,0.9912040763247152,-0.13102923836123864,0.01843579370778881,-0.002437064239155865,2.378840030687226,-0.2630335694928846,0.035916335818161116
8.16,-0.17297574556690526,-1.48999308436166,1.0,1.9866574458155468,-0.23063432742254036,0.0,0.3075124365633871,2.648876594420729,0.0,0.0,0.0,0.9912050770151832,-0.13146744860799503,0.014994990885846828,-0.0019888449316651595,2.378840030687226,-0.2638438281872195,0.02920743796331271
8.18,-0.1331858067542995,-1.494075480315237,1.0,1.992100640420316,-0.17758107567239934,0.0,0.2367747675631991,2.656134187227088,0.0,0.0,0.0,0.9912058833540561,-0.13181525726189122,0.011544598223579576,-0.0015352553998943003,2.378840030687226,-0.2644864746801832,0.022483301355258556
8.2,-0.093301163646977,-1.4970954855526484,1.0,1.9961273140701978,-0.12440155152930267,0.0,0.16586873537240354,2.66150308542693,0.0,0.0,0.0,0.9912064866361774,-0.1320724914966336,0.008086827872168783,-0.00107752271578281,2.378840030687226,-0.2649615055195349,0.01574746110811409
8.22,-0.05335017697711039,-1.4990509526418743,1.0,1.998734603522499,-0.07113356930281385,0.0,0.09484475907041846,2.664979471363332,0.0,0.0,0.0,0.9912068803533264,-0.13223902379466304,0.004623892407592636,-0.0006168833471914998,2.378840030687226,-0.26526891979548395,0.009003437472361098
8.24,-0.013361254651739707,-1.4999404911109413,1.0,1.9999206548145883,-0.01781500620231961,0.0,0.023753341603092813,2.6665608730861177,0.0,0.0,0.0,0.9912070602602443,-0.13231477173885106,0.0011580046883303914,-0.00015458034163792823,2.378840030687226,-0.26540871766349006,0.0022547402309978093
8.26,0.026637168447243387,-1.4997634684366443,1.0,1.9996846245821924,0.03551622459632452,0.0,-0.047354966128432686,2.6662461661095898,0.0,0.0,0.0,0.9912070244176496,-0.13229969787709808,-0.0023086222711859025,0.0003081394920195204,2.378840030687226,-0.26538089938773923,-0.00449512683865394
8.28,0.06661665068223926,-1.4985200104943146,1.0,1.998026680659086,0.08882220090965234,0.0,-0.11842960121286979,2.6640355742121145,0.0,0.0,0.0,0.9912067732118742,-0.13219380966060315,-0.005773775418101598,0.0007700284030246863,2.378840030687226,-0.2651854649060195,-0.011242661465669546
8.3,0.10654876388390361,-1.496211001468313,1.0,1.9949480019577506,0.14206501851187148,0.0,-0.1894200246824953,2.6599306692770006,0.0,0.0,0.0,0.9912063093509528,-0.13199715945615514,-0.009235241776413003,0.0012298405184441943,2.378840030687226,-0.2648224139163123,-0.017984358376867293
8.32,0.14640511356554467,-1.4928380832233148,1.0,1.9904507776310862,0.1952068180873929,0.0,-0.2602757574498572,2.6539343701747815,0.0,0.0,0.0,0.9912056378371968,-0.1317098446323764,-0.012690808566743227,0.001686334662333228,2.378840030687226,-0.2642917464850393,-0.024716704806848844
8.34,0.18615735911355633,-1.4884036541368295,1.0,1.9845382055157725,0.24820981215140844,0.0,-0.3309464162018779,2.6460509406876964,0.0,0.0,0.0,0.9912047659164915,-0.13133200771942896,-0.016138263337369726,0.002138277173477778,2.378840030687226,-0.2635934641765152,-0.031436176054851606
8.36,0.22577723393955712,-1.4829108673937899,1.0,1.9772144898583865,0.3010363119194095,0.0,-0.4013817492258793,2.6362859864778487,0.0,0.0,0.0,0.991203703004747,-0.13086383664127338,-0.01957539411323725,0.0025844447207547965,2.378840030687226,-0.2627275717027364,-0.0381392311166604
8.38,0.2652365655798813,-1.4763636287444193,1.0,1.9684848383258924,0.3536487541065084,0.0,-0.4715316721420112,2.6246464511011895,0.0,0.0,0.0,0.991202460592137,-0.1303055650191438,-0.02299998956965261,0.003023627115006954,2.378840030687226,-0.2616940790921475,-0.04482230842003121
8.4,0.3045072957281256,-1.468766593726976,1.0,1.9583554583026348,0.4060097276375008,0.0,-0.5413463035166677,2.6111406110701796,0.0,0.0,0.0,0.9912010521259541,-0.12965747254447674,-0.02640983923731295,0.0034546301161319016,2.378840030687226,-0.26049300437544065,-0.05148182169234117
8.42,0.34356150018657405,-1.4601251643573405,1.0,1.946833552476454,0.4580820002487654,0.0,-0.6107760003316871,2.5957780699686053,0.0,0.0,0.0,0.9911994928731004,-0.12891988541909027,-0.029802733745263637,0.003876278233837778,2.378840030687226,-0.25912437678572364,-0.05811415598952707
8.44,0.3823714087221974,-1.4504454852878141,1.0,1.9339273137170854,0.5098285449629298,0.0,-0.6797713932839065,2.5785697516227803,0.0,0.0,0.0,0.99119779976342,-0.1280931768599758,-0.03317646510828752,0.004287417520215446,2.378840030687226,-0.25758824046952994,-0.0647156639156925
8.46,0.42090942481323,-1.4397344394378415,1.0,1.9196459192504554,0.5612125664176401,0.0,-0.7482834218901867,2.55952789233394,0.0,0.0,0.0,0.991195991215259,-0.12717776766560548,-0.036528827065151044,0.00468691835193264,2.378840030687226,-0.25588465870407195,-0.07128266206321787
